firstTime,secondTime,corrAns,plusStart,secondStart,respStart,randNum,trials.thisRepN,trials.thisTrialN,trials.thisN,trials.thisIndex,trials_2.thisRepN,trials_2.thisTrialN,trials_2.thisN,trials_2.thisIndex,trials_3.thisRepN,trials_3.thisTrialN,trials_3.thisN,trials_3.thisIndex,trials_4.thisRepN,trials_4.thisTrialN,trials_4.thisN,trials_4.thisIndex,key_resp_2.keys,key_resp_2.rt,rtRound1_3.keys,rtRound1_3.corr,rtRound1_3.rt,key_resp_3.keys,key_resp_3.rt,key_resp_4.keys,key_resp_4.rt,key_resp_5.keys,key_resp_5.rt,participant,session,date,expName,psychopyVersion,frameRate,
,,,,,,,,,,,,,,,,,,,,,,,space,12.11951419498655,,,,,,,,,,563,001,2019_Mar_06_1716,TimingTask,3.0.4,59.95966812228042,
1.8,1.2,left,2.3,3.3,4.5,0.17368025899999998,0,0,0,0,,,,,,,,,,,,,,,left,1,2.6358118989737704,,,,,,,563,001,2019_Mar_06_1716,TimingTask,3.0.4,59.95966812228042,
3.6,3.2,left,4.1,5.1,8.3,0.41458448299999995,0,1,1,1,,,,,,,,,,,,,,,right,0,0.16715713997837156,,,,,,,563,001,2019_Mar_06_1716,TimingTask,3.0.4,59.95966812228042,
2.5,1.5,left,3.0,4.0,5.5,0.148607464,0,2,2,2,,,,,,,,,,,,,,,right,0,8.968665900989436,,,,,,,563,001,2019_Mar_06_1716,TimingTask,3.0.4,59.95966812228042,
1.8,2.7,right,2.3,3.3,6.0,0.13554984,0,3,3,3,,,,,,,,,,,,,,,left,0,5.135543656011578,,,,,,,563,001,2019_Mar_06_1716,TimingTask,3.0.4,59.95966812228042,
1.2,1.8,right,1.7,2.7,4.5,0.309174352,0,4,4,4,,,,,,,,,,,,,,,left,0,3.251831817004131,,,,,,,563,001,2019_Mar_06_1716,TimingTask,3.0.4,59.95966812228042,
8.8,9.9,right,9.3,10.3,20.2,0.7009299529999999,0,5,5,5,,,,,,,,,,,,,,,right,1,1.3519081810081843,,,,,,,563,001,2019_Mar_06_1716,TimingTask,3.0.4,59.95966812228042,
3.3,4.4,right,3.8,4.8,9.2,0.705723743,0,6,6,6,,,,,,,,,,,,,,,right,1,4.386205118004,,,,,,,563,001,2019_Mar_06_1716,TimingTask,3.0.4,59.95966812228042,
3.5,2.1,left,4.0,5.0,7.1,0.544523215,0,7,7,7,,,,,,,,,,,,,,,left,1,0.9353111569944303,,,,,,,563,001,2019_Mar_06_1716,TimingTask,3.0.4,59.95966812228042,
1.4,0.7,left,1.9,2.9,3.6,0.53553232,0,8,8,8,,,,,,,,,,,,,,,right,0,0.702351643005386,,,,,,,563,001,2019_Mar_06_1716,TimingTask,3.0.4,59.95966812228042,
4.4,3.3,left,4.9,5.9,9.2,0.255641654,0,9,9,9,,,,,,,,,,,,,,,right,0,3.2171141379803885,,,,,,,563,001,2019_Mar_06_1716,TimingTask,3.0.4,59.95966812228042,
3.2,3.6,right,3.7,4.7,8.3,0.140100939,0,10,10,10,,,,,,,,,,,,,,,right,1,0.9853928500087932,,,,,,,563,001,2019_Mar_06_1716,TimingTask,3.0.4,59.95966812228042,
2.8,2.1,left,3.3,4.3,6.4,0.019093293,0,11,11,11,,,,,,,,,,,,,,,left,1,0.7685743129986804,,,,,,,563,001,2019_Mar_06_1716,TimingTask,3.0.4,59.95966812228042,
0.9,1.8,right,1.4,2.4,4.2,0.461070472,0,12,12,12,,,,,,,,,,,,,,,right,1,0.8853884389973246,,,,,,,563,001,2019_Mar_06_1716,TimingTask,3.0.4,59.95966812228042,
2.1,2.8,right,2.6,3.6,6.4,0.22761601199999998,0,13,13,13,,,,,,,,,,,,,,,left,0,1.55212689601467,,,,,,,563,001,2019_Mar_06_1716,TimingTask,3.0.4,59.95966812228042,
0.7,1.4,right,1.2,2.2,3.6,0.436550891,0,14,14,14,,,,,,,,,,,,,,,left,0,1.301788109994959,,,,,,,563,001,2019_Mar_06_1716,TimingTask,3.0.4,59.95966812228042,
1.8,0.9,left,2.3,3.3,4.2,0.028891147000000002,0,15,15,15,,,,,,,,,,,,,,,left,1,1.0352945940103382,,,,,,,563,001,2019_Mar_06_1716,TimingTask,3.0.4,59.95966812228042,
2.7,1.8,left,3.2,4.2,6.0,0.277400549,0,16,16,16,,,,,,,,,,,,,,,right,0,1.418917420989601,,,,,,,563,001,2019_Mar_06_1716,TimingTask,3.0.4,59.95966812228042,
9.9,8.8,left,10.4,11.4,20.2,0.9607848720000001,0,17,17,17,,,,,,,,,,,,,,,left,1,2.0022110959980637,,,,,,,563,001,2019_Mar_06_1716,TimingTask,3.0.4,59.95966812228042,
2.1,3.5,right,2.6,3.6,7.1,0.609327094,0,18,18,18,,,,,,,,,,,,,,,right,1,3.5021628520044032,,,,,,,563,001,2019_Mar_06_1716,TimingTask,3.0.4,59.95966812228042,
1.5,2.5,right,2.0,3.0,5.5,0.487304505,0,19,19,19,,,,,,,,,,,,,,,right,1,0.818640740995761,,,,,,,563,001,2019_Mar_06_1716,TimingTask,3.0.4,59.95966812228042,
,,,,,,,,,,,,,,,,,,,,,,,,,,,,space,3.6860043549968395,,,,,563,001,2019_Mar_06_1716,TimingTask,3.0.4,59.95966812228042,
9.9,8.8,left,10.4,11.4,20.2,0.6005130679999999,,,,,0,0,0,0,,,,,,,,,,,left,1,7.96857265298604,,,,,,,563,001,2019_Mar_06_1716,TimingTask,3.0.4,59.95966812228042,
1.5,2.5,right,2.0,3.0,5.5,0.805142221,,,,,0,1,1,1,,,,,,,,,,,left,0,1.6362667199864518,,,,,,,563,001,2019_Mar_06_1716,TimingTask,3.0.4,59.95966812228042,
0.7,1.4,right,1.2,2.2,3.6,0.70587608,,,,,0,2,2,2,,,,,,,,,,,right,1,0.45214377899537794,,,,,,,563,001,2019_Mar_06_1716,TimingTask,3.0.4,59.95966812228042,
1.2,1.8,right,1.7,2.7,4.5,0.276216099,,,,,0,3,3,3,,,,,,,,,,,left,0,3.7353041780006606,,,,,,,563,001,2019_Mar_06_1716,TimingTask,3.0.4,59.95966812228042,
3.3,4.4,right,3.8,4.8,9.2,0.803512663,,,,,0,4,4,4,,,,,,,,,,,right,1,1.085386869002832,,,,,,,563,001,2019_Mar_06_1716,TimingTask,3.0.4,59.95966812228042,
2.1,2.8,right,2.6,3.6,6.4,0.26721103399999996,,,,,0,5,5,5,,,,,,,,,,,left,0,5.1521588820032775,,,,,,,563,001,2019_Mar_06_1716,TimingTask,3.0.4,59.95966812228042,
2.8,2.1,left,3.3,4.3,6.4,0.1426323,,,,,0,6,6,6,,,,,,,,,,,left,1,1.6691468250064645,,,,,,,563,001,2019_Mar_06_1716,TimingTask,3.0.4,59.95966812228042,
2.7,1.8,left,3.2,4.2,6.0,0.15619143,,,,,0,7,7,7,,,,,,,,,,,right,0,0.15235663001658395,,,,,,,563,001,2019_Mar_06_1716,TimingTask,3.0.4,59.95966812228042,
8.8,9.9,right,9.3,10.3,20.2,0.549248995,,,,,0,8,8,8,,,,,,,,,,,right,1,1.6519136190181598,,,,,,,563,001,2019_Mar_06_1716,TimingTask,3.0.4,59.95966812228042,
2.5,1.5,left,3.0,4.0,5.5,0.358211186,,,,,0,9,9,9,,,,,,,,,,,right,0,0.6853231379936915,,,,,,,563,001,2019_Mar_06_1716,TimingTask,3.0.4,59.95966812228042,
1.8,0.9,left,2.3,3.3,4.2,0.907401646,,,,,0,10,10,10,,,,,,,,,,,left,1,1.3687020420038607,,,,,,,563,001,2019_Mar_06_1716,TimingTask,3.0.4,59.95966812228042,
3.2,3.6,right,3.7,4.7,8.3,0.40261677799999995,,,,,0,11,11,11,,,,,,,,,,,left,0,0.8670556419820059,,,,,,,563,001,2019_Mar_06_1716,TimingTask,3.0.4,59.95966812228042,
2.1,3.5,right,2.6,3.6,7.1,0.699018652,,,,,0,12,12,12,,,,,,,,,,,right,1,5.585303847008618,,,,,,,563,001,2019_Mar_06_1716,TimingTask,3.0.4,59.95966812228042,
1.8,2.7,right,2.3,3.3,6.0,0.8590765890000001,,,,,0,13,13,13,,,,,,,,,,,left,0,0.6019235929998104,,,,,,,563,001,2019_Mar_06_1716,TimingTask,3.0.4,59.95966812228042,
1.4,0.7,left,1.9,2.9,3.6,0.413030013,,,,,0,14,14,14,,,,,,,,,,,right,0,1.4186326540075243,,,,,,,563,001,2019_Mar_06_1716,TimingTask,3.0.4,59.95966812228042,
3.6,3.2,left,4.1,5.1,8.3,0.12198344800000001,,,,,0,15,15,15,,,,,,,,,,,right,0,0.5851543209864758,,,,,,,563,001,2019_Mar_06_1716,TimingTask,3.0.4,59.95966812228042,
4.4,3.3,left,4.9,5.9,9.2,0.7908218929999999,,,,,0,16,16,16,,,,,,,,,,,right,0,8.485398057993734,,,,,,,563,001,2019_Mar_06_1716,TimingTask,3.0.4,59.95966812228042,
3.5,2.1,left,4.0,5.0,7.1,0.149007794,,,,,0,17,17,17,,,,,,,,,,,right,0,0.18380913301371038,,,,,,,563,001,2019_Mar_06_1716,TimingTask,3.0.4,59.95966812228042,
1.8,1.2,left,2.3,3.3,4.5,0.44825194799999996,,,,,0,18,18,18,,,,,,,,,,,right,0,0.735337783000432,,,,,,,563,001,2019_Mar_06_1716,TimingTask,3.0.4,59.95966812228042,
0.9,1.8,right,1.4,2.4,4.2,0.35938568299999996,,,,,0,19,19,19,,,,,,,,,,,left,0,0.7018235659925267,,,,,,,563,001,2019_Mar_06_1716,TimingTask,3.0.4,59.95966812228042,
,,,,,,,,,,,,,,,,,,,,,,,,,,,,,,space,3.120615682011703,,,563,001,2019_Mar_06_1716,TimingTask,3.0.4,59.95966812228042,
2.7,1.8,left,3.2,4.2,6.0,0.09224181599999999,,,,,,,,,0,0,0,0,,,,,,,left,1,0.8354825059941504,,,,,,,563,001,2019_Mar_06_1716,TimingTask,3.0.4,59.95966812228042,
1.8,2.7,right,2.3,3.3,6.0,0.320860695,,,,,,,,,0,1,1,1,,,,,,,right,1,1.5855393499950878,,,,,,,563,001,2019_Mar_06_1716,TimingTask,3.0.4,59.95966812228042,
0.7,1.4,right,1.2,2.2,3.6,0.091696964,,,,,,,,,0,2,2,2,,,,,,,left,0,0.4856012969976291,,,,,,,563,001,2019_Mar_06_1716,TimingTask,3.0.4,59.95966812228042,
4.4,3.3,left,4.9,5.9,9.2,0.010112259,,,,,,,,,0,3,3,3,,,,,,,right,0,0.7352181599999312,,,,,,,563,001,2019_Mar_06_1716,TimingTask,3.0.4,59.95966812228042,
0.9,1.8,right,1.4,2.4,4.2,0.877480265,,,,,,,,,0,4,4,4,,,,,,,left,0,0.7353918790176976,,,,,,,563,001,2019_Mar_06_1716,TimingTask,3.0.4,59.95966812228042,
1.8,0.9,left,2.3,3.3,4.2,0.74232345,,,,,,,,,0,5,5,5,,,,,,,left,1,1.1024341379816178,,,,,,,563,001,2019_Mar_06_1716,TimingTask,3.0.4,59.95966812228042,
1.8,1.2,left,2.3,3.3,4.5,0.307053849,,,,,,,,,0,6,6,6,,,,,,,right,0,0.2852101270109415,,,,,,,563,001,2019_Mar_06_1716,TimingTask,3.0.4,59.95966812228042,
3.6,3.2,left,4.1,5.1,8.3,0.331236492,,,,,,,,,0,7,7,7,,,,,,,left,1,2.0686566040094476,,,,,,,563,001,2019_Mar_06_1716,TimingTask,3.0.4,59.95966812228042,
2.5,1.5,left,3.0,4.0,5.5,0.778562476,,,,,,,,,0,8,8,8,,,,,,,left,1,3.202226563007571,,,,,,,563,001,2019_Mar_06_1716,TimingTask,3.0.4,59.95966812228042,
1.2,1.8,right,1.7,2.7,4.5,0.18131893100000002,,,,,,,,,0,9,9,9,,,,,,,right,1,2.6188520930008963,,,,,,,563,001,2019_Mar_06_1716,TimingTask,3.0.4,59.95966812228042,
2.8,2.1,left,3.3,4.3,6.4,0.897215002,,,,,,,,,0,10,10,10,,,,,,,left,1,2.4687747930001933,,,,,,,563,001,2019_Mar_06_1716,TimingTask,3.0.4,59.95966812228042,
2.1,2.8,right,2.6,3.6,6.4,0.734438325,,,,,,,,,0,11,11,11,,,,,,,right,1,0.9688089700066485,,,,,,,563,001,2019_Mar_06_1716,TimingTask,3.0.4,59.95966812228042,
3.2,3.6,right,3.7,4.7,8.3,0.716372322,,,,,,,,,0,12,12,12,,,,,,,right,1,0.7670405649987515,,,,,,,563,001,2019_Mar_06_1716,TimingTask,3.0.4,59.95966812228042,
2.1,3.5,right,2.6,3.6,7.1,0.2797458,,,,,,,,,0,13,13,13,,,,,,,right,1,0.6023065130284522,,,,,,,563,001,2019_Mar_06_1716,TimingTask,3.0.4,59.95966812228042,
1.4,0.7,left,1.9,2.9,3.6,0.038284202,,,,,,,,,0,14,14,14,,,,,,,left,1,2.101997958990978,,,,,,,563,001,2019_Mar_06_1716,TimingTask,3.0.4,59.95966812228042,
9.9,8.8,left,10.4,11.4,20.2,0.656448526,,,,,,,,,0,15,15,15,,,,,,,left,1,1.400233668013243,,,,,,,563,001,2019_Mar_06_1716,TimingTask,3.0.4,59.95966812228042,
3.5,2.1,left,4.0,5.0,7.1,0.25078508899999996,,,,,,,,,0,16,16,16,,,,,,,left,1,1.6854793399979826,,,,,,,563,001,2019_Mar_06_1716,TimingTask,3.0.4,59.95966812228042,
8.8,9.9,right,9.3,10.3,20.2,0.055985873,,,,,,,,,0,17,17,17,,,,,,,right,1,2.2019026759953704,,,,,,,563,001,2019_Mar_06_1716,TimingTask,3.0.4,59.95966812228042,
1.5,2.5,right,2.0,3.0,5.5,0.279030548,,,,,,,,,0,18,18,18,,,,,,,right,1,1.0856970059976447,,,,,,,563,001,2019_Mar_06_1716,TimingTask,3.0.4,59.95966812228042,
3.3,4.4,right,3.8,4.8,9.2,0.6214470879999999,,,,,,,,,0,19,19,19,,,,,,,right,1,1.3854976510046981,,,,,,,563,001,2019_Mar_06_1716,TimingTask,3.0.4,59.95966812228042,
,,,,,,,,,,,,,,,,,,,,,,,,,,,,,,,,space,6.486129222990712,563,001,2019_Mar_06_1716,TimingTask,3.0.4,59.95966812228042,
2.5,1.5,left,3.0,4.0,5.5,0.9526453340000001,,,,,,,,,,,,,0,0,0,0,,,left,1,2.1520269559987355,,,,,,,563,001,2019_Mar_06_1716,TimingTask,3.0.4,59.95966812228042,
2.8,2.1,left,3.3,4.3,6.4,0.962497787,,,,,,,,,,,,,0,1,1,1,,,left,1,2.3017743439995684,,,,,,,563,001,2019_Mar_06_1716,TimingTask,3.0.4,59.95966812228042,
2.7,1.8,left,3.2,4.2,6.0,0.06690605599999999,,,,,,,,,,,,,0,2,2,2,,,left,1,1.3858197540102992,,,,,,,563,001,2019_Mar_06_1716,TimingTask,3.0.4,59.95966812228042,
8.8,9.9,right,9.3,10.3,20.2,0.09555333099999999,,,,,,,,,,,,,0,3,3,3,,,right,1,1.385355973005062,,,,,,,563,001,2019_Mar_06_1716,TimingTask,3.0.4,59.95966812228042,
1.8,2.7,right,2.3,3.3,6.0,0.559320406,,,,,,,,,,,,,0,4,4,4,,,right,1,1.1019258190062828,,,,,,,563,001,2019_Mar_06_1716,TimingTask,3.0.4,59.95966812228042,
3.5,2.1,left,4.0,5.0,7.1,0.885130943,,,,,,,,,,,,,0,5,5,5,,,left,1,1.4187119110138156,,,,,,,563,001,2019_Mar_06_1716,TimingTask,3.0.4,59.95966812228042,
2.1,2.8,right,2.6,3.6,6.4,0.7843272990000001,,,,,,,,,,,,,0,6,6,6,,,right,1,0.8856196719862055,,,,,,,563,001,2019_Mar_06_1716,TimingTask,3.0.4,59.95966812228042,
4.4,3.3,left,4.9,5.9,9.2,0.594355042,,,,,,,,,,,,,0,7,7,7,,,left,1,1.2521313469915185,,,,,,,563,001,2019_Mar_06_1716,TimingTask,3.0.4,59.95966812228042,
0.9,1.8,right,1.4,2.4,4.2,0.39760777399999997,,,,,,,,,,,,,0,8,8,8,,,right,1,1.118796108989045,,,,,,,563,001,2019_Mar_06_1716,TimingTask,3.0.4,59.95966812228042,
3.6,3.2,left,4.1,5.1,8.3,0.454525661,,,,,,,,,,,,,0,9,9,9,,,right,0,2.418547755019972,,,,,,,563,001,2019_Mar_06_1716,TimingTask,3.0.4,59.95966812228042,
9.9,8.8,left,10.4,11.4,20.2,0.335173919,,,,,,,,,,,,,0,10,10,10,,,left,1,1.468579565989785,,,,,,,563,001,2019_Mar_06_1716,TimingTask,3.0.4,59.95966812228042,
1.8,1.2,left,2.3,3.3,4.5,0.050156068,,,,,,,,,,,,,0,11,11,11,,,left,1,1.9185682520037517,,,,,,,563,001,2019_Mar_06_1716,TimingTask,3.0.4,59.95966812228042,
2.1,3.5,right,2.6,3.6,7.1,0.553210354,,,,,,,,,,,,,0,12,12,12,,,right,1,0.9853321039990988,,,,,,,563,001,2019_Mar_06_1716,TimingTask,3.0.4,59.95966812228042,
3.2,3.6,right,3.7,4.7,8.3,0.062598668,,,,,,,,,,,,,0,13,13,13,,,right,1,1.001884269004222,,,,,,,563,001,2019_Mar_06_1716,TimingTask,3.0.4,59.95966812228042,
1.5,2.5,right,2.0,3.0,5.5,0.851613693,,,,,,,,,,,,,0,14,14,14,,,right,1,2.850473972997861,,,,,,,563,001,2019_Mar_06_1716,TimingTask,3.0.4,59.95966812228042,
1.2,1.8,right,1.7,2.7,4.5,0.9561071459999999,,,,,,,,,,,,,0,15,15,15,,,right,1,0.8523358179954812,,,,,,,563,001,2019_Mar_06_1716,TimingTask,3.0.4,59.95966812228042,
3.3,4.4,right,3.8,4.8,9.2,0.25372748300000003,,,,,,,,,,,,,0,16,16,16,,,right,1,0.6353189130022656,,,,,,,563,001,2019_Mar_06_1716,TimingTask,3.0.4,59.95966812228042,
1.8,0.9,left,2.3,3.3,4.2,0.328250033,,,,,,,,,,,,,0,17,17,17,,,left,1,1.3854959160089493,,,,,,,563,001,2019_Mar_06_1716,TimingTask,3.0.4,59.95966812228042,
1.4,0.7,left,1.9,2.9,3.6,0.26139814899999997,,,,,,,,,,,,,0,18,18,18,,,left,1,1.118845747987507,,,,,,,563,001,2019_Mar_06_1716,TimingTask,3.0.4,59.95966812228042,
0.7,1.4,right,1.2,2.2,3.6,0.515481866,,,,,,,,,,,,,0,19,19,19,,,right,1,0.7187693380110431,,,,,,,563,001,2019_Mar_06_1716,TimingTask,3.0.4,59.95966812228042,
