firstTime,secondTime,corrAns,plusStart,secondStart,respStart,randNum,trials.thisRepN,trials.thisTrialN,trials.thisN,trials.thisIndex,trials_2.thisRepN,trials_2.thisTrialN,trials_2.thisN,trials_2.thisIndex,trials_3.thisRepN,trials_3.thisTrialN,trials_3.thisN,trials_3.thisIndex,trials_4.thisRepN,trials_4.thisTrialN,trials_4.thisN,trials_4.thisIndex,key_resp_2.keys,key_resp_2.rt,rtRound1_3.keys,rtRound1_3.corr,rtRound1_3.rt,key_resp_3.keys,key_resp_3.rt,key_resp_4.keys,key_resp_4.rt,key_resp_5.keys,key_resp_5.rt,participant,session,date,expName,psychopyVersion,frameRate,
,,,,,,,,,,,,,,,,,,,,,,,space,2.3860572400153615,,,,,,,,,,599,001,2019_Mar_25_1505,TimingTask,3.0.4,60.02822853483585,
1.8,1.2,left,2.3,3.3,4.5,0.17368025899999998,0,0,0,0,,,,,,,,,,,,,,,left,1,1.7028225020039827,,,,,,,599,001,2019_Mar_25_1505,TimingTask,3.0.4,60.02822853483585,
3.6,3.2,left,4.1,5.1,8.3,0.41458448299999995,0,1,1,1,,,,,,,,,,,,,,,right,0,0.45238392997998744,,,,,,,599,001,2019_Mar_25_1505,TimingTask,3.0.4,60.02822853483585,
2.5,1.5,left,3.0,4.0,5.5,0.148607464,0,2,2,2,,,,,,,,,,,,,,,left,1,1.2188721969723701,,,,,,,599,001,2019_Mar_25_1505,TimingTask,3.0.4,60.02822853483585,
1.8,2.7,right,2.3,3.3,6.0,0.13554984,0,3,3,3,,,,,,,,,,,,,,,right,1,2.0004170709871687,,,,,,,599,001,2019_Mar_25_1505,TimingTask,3.0.4,60.02822853483585,
1.2,1.8,right,1.7,2.7,4.5,0.309174352,0,4,4,4,,,,,,,,,,,,,,,right,1,0.4022657799650915,,,,,,,599,001,2019_Mar_25_1505,TimingTask,3.0.4,60.02822853483585,
8.8,9.9,right,9.3,10.3,20.2,0.7009299529999999,0,5,5,5,,,,,,,,,,,,,,,right,1,0.25220709101995453,,,,,,,599,001,2019_Mar_25_1505,TimingTask,3.0.4,60.02822853483585,
3.3,4.4,right,3.8,4.8,9.2,0.705723743,0,6,6,6,,,,,,,,,,,,,,,right,1,0.3022760029998608,,,,,,,599,001,2019_Mar_25_1505,TimingTask,3.0.4,60.02822853483585,
3.5,2.1,left,4.0,5.0,7.1,0.544523215,0,7,7,7,,,,,,,,,,,,,,,left,1,0.35052875004475936,,,,,,,599,001,2019_Mar_25_1505,TimingTask,3.0.4,60.02822853483585,
1.4,0.7,left,1.9,2.9,3.6,0.53553232,0,8,8,8,,,,,,,,,,,,,,,left,1,0.73544891201891,,,,,,,599,001,2019_Mar_25_1505,TimingTask,3.0.4,60.02822853483585,
4.4,3.3,left,4.9,5.9,9.2,0.255641654,0,9,9,9,,,,,,,,,,,,,,,right,0,1.1020359820104204,,,,,,,599,001,2019_Mar_25_1505,TimingTask,3.0.4,60.02822853483585,
3.2,3.6,right,3.7,4.7,8.3,0.140100939,0,10,10,10,,,,,,,,,,,,,,,right,1,0.26882106898119673,,,,,,,599,001,2019_Mar_25_1505,TimingTask,3.0.4,60.02822853483585,
2.8,2.1,left,3.3,4.3,6.4,0.019093293,0,11,11,11,,,,,,,,,,,,,,,left,1,0.9837316569755785,,,,,,,599,001,2019_Mar_25_1505,TimingTask,3.0.4,60.02822853483585,
0.9,1.8,right,1.4,2.4,4.2,0.461070472,0,12,12,12,,,,,,,,,,,,,,,right,1,0.21873739798320457,,,,,,,599,001,2019_Mar_25_1505,TimingTask,3.0.4,60.02822853483585,
2.1,2.8,right,2.6,3.6,6.4,0.22761601199999998,0,13,13,13,,,,,,,,,,,,,,,right,1,0.2522630349849351,,,,,,,599,001,2019_Mar_25_1505,TimingTask,3.0.4,60.02822853483585,
0.7,1.4,right,1.2,2.2,3.6,0.436550891,0,14,14,14,,,,,,,,,,,,,,,left,0,0.6688510160311125,,,,,,,599,001,2019_Mar_25_1505,TimingTask,3.0.4,60.02822853483585,
1.8,0.9,left,2.3,3.3,4.2,0.028891147000000002,0,15,15,15,,,,,,,,,,,,,,,left,1,0.6020723640103824,,,,,,,599,001,2019_Mar_25_1505,TimingTask,3.0.4,60.02822853483585,
2.7,1.8,left,3.2,4.2,6.0,0.277400549,0,16,16,16,,,,,,,,,,,,,,,left,1,0.7188977159676142,,,,,,,599,001,2019_Mar_25_1505,TimingTask,3.0.4,60.02822853483585,
9.9,8.8,left,10.4,11.4,20.2,0.9607848720000001,0,17,17,17,,,,,,,,,,,,,,,left,1,0.4519534819992259,,,,,,,599,001,2019_Mar_25_1505,TimingTask,3.0.4,60.02822853483585,
2.1,3.5,right,2.6,3.6,7.1,0.609327094,0,18,18,18,,,,,,,,,,,,,,,right,1,0.285569820960518,,,,,,,599,001,2019_Mar_25_1505,TimingTask,3.0.4,60.02822853483585,
1.5,2.5,right,2.0,3.0,5.5,0.487304505,0,19,19,19,,,,,,,,,,,,,,,right,1,0.25203938997583464,,,,,,,599,001,2019_Mar_25_1505,TimingTask,3.0.4,60.02822853483585,
,,,,,,,,,,,,,,,,,,,,,,,,,,,,space,1.9692951029865071,,,,,599,001,2019_Mar_25_1505,TimingTask,3.0.4,60.02822853483585,
9.9,8.8,left,10.4,11.4,20.2,0.6005130679999999,,,,,0,0,0,0,,,,,,,,,,,left,1,0.7019066520151682,,,,,,,599,001,2019_Mar_25_1505,TimingTask,3.0.4,60.02822853483585,
1.5,2.5,right,2.0,3.0,5.5,0.805142221,,,,,0,1,1,1,,,,,,,,,,,right,1,0.28537614399101585,,,,,,,599,001,2019_Mar_25_1505,TimingTask,3.0.4,60.02822853483585,
0.7,1.4,right,1.2,2.2,3.6,0.70587608,,,,,0,2,2,2,,,,,,,,,,,right,1,0.30222568404860795,,,,,,,599,001,2019_Mar_25_1505,TimingTask,3.0.4,60.02822853483585,
1.2,1.8,right,1.7,2.7,4.5,0.276216099,,,,,0,3,3,3,,,,,,,,,,,right,1,0.26885992399184033,,,,,,,599,001,2019_Mar_25_1505,TimingTask,3.0.4,60.02822853483585,
3.3,4.4,right,3.8,4.8,9.2,0.803512663,,,,,0,4,4,4,,,,,,,,,,,right,1,0.8022562310216017,,,,,,,599,001,2019_Mar_25_1505,TimingTask,3.0.4,60.02822853483585,
2.1,2.8,right,2.6,3.6,6.4,0.26721103399999996,,,,,0,5,5,5,,,,,,,,,,,right,1,0.4021557120140642,,,,,,,599,001,2019_Mar_25_1505,TimingTask,3.0.4,60.02822853483585,
2.8,2.1,left,3.3,4.3,6.4,0.1426323,,,,,0,6,6,6,,,,,,,,,,,left,1,0.5689800530089997,,,,,,,599,001,2019_Mar_25_1505,TimingTask,3.0.4,60.02822853483585,
2.7,1.8,left,3.2,4.2,6.0,0.15619143,,,,,0,7,7,7,,,,,,,,,,,left,1,0.9854747779900208,,,,,,,599,001,2019_Mar_25_1505,TimingTask,3.0.4,60.02822853483585,
8.8,9.9,right,9.3,10.3,20.2,0.549248995,,,,,0,8,8,8,,,,,,,,,,,right,1,0.6687688529491425,,,,,,,599,001,2019_Mar_25_1505,TimingTask,3.0.4,60.02822853483585,
2.5,1.5,left,3.0,4.0,5.5,0.358211186,,,,,0,9,9,9,,,,,,,,,,,left,1,0.5516451119910926,,,,,,,599,001,2019_Mar_25_1505,TimingTask,3.0.4,60.02822853483585,
1.8,0.9,left,2.3,3.3,4.2,0.907401646,,,,,0,10,10,10,,,,,,,,,,,left,1,0.6355061570066027,,,,,,,599,001,2019_Mar_25_1505,TimingTask,3.0.4,60.02822853483585,
3.2,3.6,right,3.7,4.7,8.3,0.40261677799999995,,,,,0,11,11,11,,,,,,,,,,,right,1,0.3188177109695971,,,,,,,599,001,2019_Mar_25_1505,TimingTask,3.0.4,60.02822853483585,
2.1,3.5,right,2.6,3.6,7.1,0.699018652,,,,,0,12,12,12,,,,,,,,,,,right,1,0.7837733940104954,,,,,,,599,001,2019_Mar_25_1505,TimingTask,3.0.4,60.02822853483585,
1.8,2.7,right,2.3,3.3,6.0,0.8590765890000001,,,,,0,13,13,13,,,,,,,,,,,right,1,0.7354532459867187,,,,,,,599,001,2019_Mar_25_1505,TimingTask,3.0.4,60.02822853483585,
1.4,0.7,left,1.9,2.9,3.6,0.413030013,,,,,0,14,14,14,,,,,,,,,,,left,1,0.9855053129722364,,,,,,,599,001,2019_Mar_25_1505,TimingTask,3.0.4,60.02822853483585,
3.6,3.2,left,4.1,5.1,8.3,0.12198344800000001,,,,,0,15,15,15,,,,,,,,,,,right,0,0.8020947169861756,,,,,,,599,001,2019_Mar_25_1505,TimingTask,3.0.4,60.02822853483585,
4.4,3.3,left,4.9,5.9,9.2,0.7908218929999999,,,,,0,16,16,16,,,,,,,,,,,left,1,0.33546629099873826,,,,,,,599,001,2019_Mar_25_1505,TimingTask,3.0.4,60.02822853483585,
3.5,2.1,left,4.0,5.0,7.1,0.149007794,,,,,0,17,17,17,,,,,,,,,,,left,1,0.6171137089841068,,,,,,,599,001,2019_Mar_25_1505,TimingTask,3.0.4,60.02822853483585,
1.8,1.2,left,2.3,3.3,4.5,0.44825194799999996,,,,,0,18,18,18,,,,,,,,,,,left,1,0.7523168050101958,,,,,,,599,001,2019_Mar_25_1505,TimingTask,3.0.4,60.02822853483585,
0.9,1.8,right,1.4,2.4,4.2,0.35938568299999996,,,,,0,19,19,19,,,,,,,,,,,right,1,0.30219721095636487,,,,,,,599,001,2019_Mar_25_1505,TimingTask,3.0.4,60.02822853483585,
,,,,,,,,,,,,,,,,,,,,,,,,,,,,,,space,1.7194921409827657,,,599,001,2019_Mar_25_1505,TimingTask,3.0.4,60.02822853483585,
2.7,1.8,left,3.2,4.2,6.0,0.09224181599999999,,,,,,,,,0,0,0,0,,,,,,,left,1,0.5189713159925304,,,,,,,599,001,2019_Mar_25_1505,TimingTask,3.0.4,60.02822853483585,
1.8,2.7,right,2.3,3.3,6.0,0.320860695,,,,,,,,,0,1,1,1,,,,,,,right,1,0.26879467896651477,,,,,,,599,001,2019_Mar_25_1505,TimingTask,3.0.4,60.02822853483585,
0.7,1.4,right,1.2,2.2,3.6,0.091696964,,,,,,,,,0,2,2,2,,,,,,,right,1,0.2521341309766285,,,,,,,599,001,2019_Mar_25_1505,TimingTask,3.0.4,60.02822853483585,
4.4,3.3,left,4.9,5.9,9.2,0.010112259,,,,,,,,,0,3,3,3,,,,,,,left,1,0.5189117459813133,,,,,,,599,001,2019_Mar_25_1505,TimingTask,3.0.4,60.02822853483585,
0.9,1.8,right,1.4,2.4,4.2,0.877480265,,,,,,,,,0,4,4,4,,,,,,,right,1,0.585474941006396,,,,,,,599,001,2019_Mar_25_1505,TimingTask,3.0.4,60.02822853483585,
1.8,0.9,left,2.3,3.3,4.2,0.74232345,,,,,,,,,0,5,5,5,,,,,,,left,1,0.5687117999768816,,,,,,,599,001,2019_Mar_25_1505,TimingTask,3.0.4,60.02822853483585,
1.8,1.2,left,2.3,3.3,4.5,0.307053849,,,,,,,,,0,6,6,6,,,,,,,left,1,0.635591754980851,,,,,,,599,001,2019_Mar_25_1505,TimingTask,3.0.4,60.02822853483585,
3.6,3.2,left,4.1,5.1,8.3,0.331236492,,,,,,,,,0,7,7,7,,,,,,,left,1,0.5855001599993557,,,,,,,599,001,2019_Mar_25_1505,TimingTask,3.0.4,60.02822853483585,
2.5,1.5,left,3.0,4.0,5.5,0.778562476,,,,,,,,,0,8,8,8,,,,,,,left,1,0.902337683015503,,,,,,,599,001,2019_Mar_25_1505,TimingTask,3.0.4,60.02822853483585,
1.2,1.8,right,1.7,2.7,4.5,0.18131893100000002,,,,,,,,,0,9,9,9,,,,,,,right,1,1.3022005999810062,,,,,,,599,001,2019_Mar_25_1505,TimingTask,3.0.4,60.02822853483585,
2.8,2.1,left,3.3,4.3,6.4,0.897215002,,,,,,,,,0,10,10,10,,,,,,,left,1,1.7352889580070041,,,,,,,599,001,2019_Mar_25_1505,TimingTask,3.0.4,60.02822853483585,
2.1,2.8,right,2.6,3.6,6.4,0.734438325,,,,,,,,,0,11,11,11,,,,,,,right,1,0.31892497098306194,,,,,,,599,001,2019_Mar_25_1505,TimingTask,3.0.4,60.02822853483585,
3.2,3.6,right,3.7,4.7,8.3,0.716372322,,,,,,,,,0,12,12,12,,,,,,,right,1,0.3854847069596872,,,,,,,599,001,2019_Mar_25_1505,TimingTask,3.0.4,60.02822853483585,
2.1,3.5,right,2.6,3.6,7.1,0.2797458,,,,,,,,,0,13,13,13,,,,,,,right,1,0.2522570200380869,,,,,,,599,001,2019_Mar_25_1505,TimingTask,3.0.4,60.02822853483585,
1.4,0.7,left,1.9,2.9,3.6,0.038284202,,,,,,,,,0,14,14,14,,,,,,,left,1,0.7354770199744962,,,,,,,599,001,2019_Mar_25_1505,TimingTask,3.0.4,60.02822853483585,
9.9,8.8,left,10.4,11.4,20.2,0.656448526,,,,,,,,,0,15,15,15,,,,,,,right,0,0.5356315319659188,,,,,,,599,001,2019_Mar_25_1505,TimingTask,3.0.4,60.02822853483585,
3.5,2.1,left,4.0,5.0,7.1,0.25078508899999996,,,,,,,,,0,16,16,16,,,,,,,left,1,0.568987353995908,,,,,,,599,001,2019_Mar_25_1505,TimingTask,3.0.4,60.02822853483585,
8.8,9.9,right,9.3,10.3,20.2,0.055985873,,,,,,,,,0,17,17,17,,,,,,,right,1,0.28540722600882873,,,,,,,599,001,2019_Mar_25_1505,TimingTask,3.0.4,60.02822853483585,
1.5,2.5,right,2.0,3.0,5.5,0.279030548,,,,,,,,,0,18,18,18,,,,,,,left,0,0.6856312300078571,,,,,,,599,001,2019_Mar_25_1505,TimingTask,3.0.4,60.02822853483585,
3.3,4.4,right,3.8,4.8,9.2,0.6214470879999999,,,,,,,,,0,19,19,19,,,,,,,right,1,0.7688623020076193,,,,,,,599,001,2019_Mar_25_1505,TimingTask,3.0.4,60.02822853483585,
,,,,,,,,,,,,,,,,,,,,,,,,,,,,,,,,space,1.6862221320043318,599,001,2019_Mar_25_1505,TimingTask,3.0.4,60.02822853483585,
2.5,1.5,left,3.0,4.0,5.5,0.9526453340000001,,,,,,,,,,,,,0,0,0,0,,,left,1,0.7021254280116409,,,,,,,599,001,2019_Mar_25_1505,TimingTask,3.0.4,60.02822853483585,
2.8,2.1,left,3.3,4.3,6.4,0.962497787,,,,,,,,,,,,,0,1,1,1,,,left,1,1.0356474869768135,,,,,,,599,001,2019_Mar_25_1505,TimingTask,3.0.4,60.02822853483585,
2.7,1.8,left,3.2,4.2,6.0,0.06690605599999999,,,,,,,,,,,,,0,2,2,2,,,left,1,0.5523194250417873,,,,,,,599,001,2019_Mar_25_1505,TimingTask,3.0.4,60.02822853483585,
8.8,9.9,right,9.3,10.3,20.2,0.09555333099999999,,,,,,,,,,,,,0,3,3,3,,,right,1,0.6851888080127537,,,,,,,599,001,2019_Mar_25_1505,TimingTask,3.0.4,60.02822853483585,
1.8,2.7,right,2.3,3.3,6.0,0.559320406,,,,,,,,,,,,,0,4,4,4,,,right,1,0.25049633701564744,,,,,,,599,001,2019_Mar_25_1505,TimingTask,3.0.4,60.02822853483585,
3.5,2.1,left,4.0,5.0,7.1,0.885130943,,,,,,,,,,,,,0,5,5,5,,,left,1,0.8688272230210714,,,,,,,599,001,2019_Mar_25_1505,TimingTask,3.0.4,60.02822853483585,
2.1,2.8,right,2.6,3.6,6.4,0.7843272990000001,,,,,,,,,,,,,0,6,6,6,,,right,1,0.4188095250283368,,,,,,,599,001,2019_Mar_25_1505,TimingTask,3.0.4,60.02822853483585,
4.4,3.3,left,4.9,5.9,9.2,0.594355042,,,,,,,,,,,,,0,7,7,7,,,left,1,1.0021712050074711,,,,,,,599,001,2019_Mar_25_1505,TimingTask,3.0.4,60.02822853483585,
0.9,1.8,right,1.4,2.4,4.2,0.39760777399999997,,,,,,,,,,,,,0,8,8,8,,,right,1,0.2354684550082311,,,,,,,599,001,2019_Mar_25_1505,TimingTask,3.0.4,60.02822853483585,
3.6,3.2,left,4.1,5.1,8.3,0.454525661,,,,,,,,,,,,,0,9,9,9,,,right,0,0.8019804360228591,,,,,,,599,001,2019_Mar_25_1505,TimingTask,3.0.4,60.02822853483585,
9.9,8.8,left,10.4,11.4,20.2,0.335173919,,,,,,,,,,,,,0,10,10,10,,,left,1,0.6855169889749959,,,,,,,599,001,2019_Mar_25_1505,TimingTask,3.0.4,60.02822853483585,
1.8,1.2,left,2.3,3.3,4.5,0.050156068,,,,,,,,,,,,,0,11,11,11,,,right,0,1.152208089013584,,,,,,,599,001,2019_Mar_25_1505,TimingTask,3.0.4,60.02822853483585,
2.1,3.5,right,2.6,3.6,7.1,0.553210354,,,,,,,,,,,,,0,12,12,12,,,right,1,0.26885140797821805,,,,,,,599,001,2019_Mar_25_1505,TimingTask,3.0.4,60.02822853483585,
3.2,3.6,right,3.7,4.7,8.3,0.062598668,,,,,,,,,,,,,0,13,13,13,,,left,0,0.9354953300207853,,,,,,,599,001,2019_Mar_25_1505,TimingTask,3.0.4,60.02822853483585,
1.5,2.5,right,2.0,3.0,5.5,0.851613693,,,,,,,,,,,,,0,14,14,14,,,right,1,0.33567081403452903,,,,,,,599,001,2019_Mar_25_1505,TimingTask,3.0.4,60.02822853483585,
1.2,1.8,right,1.7,2.7,4.5,0.9561071459999999,,,,,,,,,,,,,0,15,15,15,,,right,1,1.0356790499645285,,,,,,,599,001,2019_Mar_25_1505,TimingTask,3.0.4,60.02822853483585,
3.3,4.4,right,3.8,4.8,9.2,0.25372748300000003,,,,,,,,,,,,,0,16,16,16,,,right,1,0.4356001280248165,,,,,,,599,001,2019_Mar_25_1505,TimingTask,3.0.4,60.02822853483585,
1.8,0.9,left,2.3,3.3,4.2,0.328250033,,,,,,,,,,,,,0,17,17,17,,,left,1,2.0190264269476756,,,,,,,599,001,2019_Mar_25_1505,TimingTask,3.0.4,60.02822853483585,
1.4,0.7,left,1.9,2.9,3.6,0.26139814899999997,,,,,,,,,,,,,0,18,18,18,,,left,1,1.3521641659899615,,,,,,,599,001,2019_Mar_25_1505,TimingTask,3.0.4,60.02822853483585,
0.7,1.4,right,1.2,2.2,3.6,0.515481866,,,,,,,,,,,,,0,19,19,19,,,right,1,0.25231514300685376,,,,,,,599,001,2019_Mar_25_1505,TimingTask,3.0.4,60.02822853483585,
