firstTime,secondTime,corrAns,plusStart,secondStart,respStart,Block.thisRepN,Block.thisTrialN,Block.thisN,Block.thisIndex,trials.thisRepN,trials.thisTrialN,trials.thisN,trials.thisIndex,key_resp_2.keys,key_resp_2.rt,rtRound1_3.keys,rtRound1_3.corr,rtRound1_3.rt,date,frameRate,expName,session,participant,
0.7,1.4,right,1.2,2.2,3.6,0,0,0,0,0,0,0,0,space,7.98357734806,right,1,1.10068317736,2018_Dec_04_1656,None,TimingTask,001,eaw52,
0.9,1.8,right,1.4,2.4,4.2,0,0,0,0,0,1,1,15,,,right,1,0.505082443357,2018_Dec_04_1656,None,TimingTask,001,eaw52,
1.5,2.5,right,2.0,3.0,5.5,0,0,0,0,0,2,2,11,,,left,0,1.91729168477,2018_Dec_04_1656,None,TimingTask,001,eaw52,
1.4,0.7,left,1.9,2.9,3.6,0,0,0,0,0,3,3,10,,,left,1,1.15059994906,2018_Dec_04_1656,None,TimingTask,001,eaw52,
2.5,1.5,left,3.0,4.0,5.5,0,0,0,0,0,4,4,1,,,left,1,1.06324353628,2018_Dec_04_1656,None,TimingTask,001,eaw52,
1.8,1.2,left,2.3,3.3,4.5,0,0,0,0,0,5,5,12,,,right,0,2.68778359052,2018_Dec_04_1656,None,TimingTask,001,eaw52,
2.8,2.1,left,3.3,4.3,6.4,0,0,0,0,0,6,6,8,,,left,1,1.05071122362,2018_Dec_04_1656,None,TimingTask,001,eaw52,
1.8,2.7,right,2.3,3.3,6.0,0,0,0,0,0,7,7,17,,,right,1,0.350515639875,2018_Dec_04_1656,None,TimingTask,001,eaw52,
9.9,8.8,left,10.4,11.4,20.2,0,0,0,0,0,8,8,4,,,left,1,1.08384637535,2018_Dec_04_1656,None,TimingTask,001,eaw52,
2.1,3.5,right,2.6,3.6,7.1,0,0,0,0,0,9,9,6,,,right,1,0.333454980515,2018_Dec_04_1656,None,TimingTask,001,eaw52,
1.2,1.8,right,1.7,2.7,4.5,0,0,0,0,0,10,10,2,,,right,1,0.354638369288,2018_Dec_04_1656,None,TimingTask,001,eaw52,
4.4,3.3,left,4.9,5.9,9.2,0,0,0,0,0,11,11,13,,,left,1,1.82137351111,2018_Dec_04_1656,None,TimingTask,001,eaw52,
2.7,1.8,left,3.2,4.2,6.0,0,0,0,0,0,12,12,7,,,left,1,0.921469027409,2018_Dec_04_1656,None,TimingTask,001,eaw52,
2.1,2.8,right,2.6,3.6,6.4,0,0,0,0,0,13,13,18,,,right,1,0.613409481011,2018_Dec_04_1656,None,TimingTask,001,eaw52,
3.5,2.1,left,4.0,5.0,7.1,0,0,0,0,0,14,14,16,,,left,1,0.883913902333,2018_Dec_04_1656,None,TimingTask,001,eaw52,
3.2,3.6,right,3.7,4.7,8.3,0,0,0,0,0,15,15,9,,,right,1,0.350389631232,2018_Dec_04_1656,None,TimingTask,001,eaw52,
8.8,9.9,right,9.3,10.3,20.2,0,0,0,0,0,16,16,14,,,right,1,1.26727683656,2018_Dec_04_1656,None,TimingTask,001,eaw52,
1.8,0.9,left,2.3,3.3,4.2,0,0,0,0,0,17,17,5,,,left,1,1.1207831197,2018_Dec_04_1656,None,TimingTask,001,eaw52,
3.3,4.4,right,3.8,4.8,9.2,0,0,0,0,0,18,18,3,,,right,1,1.68401670014,2018_Dec_04_1656,None,TimingTask,001,eaw52,
3.6,3.2,left,4.1,5.1,8.3,0,0,0,0,0,19,19,19,,,right,0,0.746677695541,2018_Dec_04_1656,None,TimingTask,001,eaw52,
0.9,1.8,right,1.4,2.4,4.2,0,0,0,0,1,0,20,15,,,right,1,0.484016814036,2018_Dec_04_1656,None,TimingTask,001,eaw52,
3.3,4.4,right,3.8,4.8,9.2,0,0,0,0,1,1,21,3,,,right,1,0.863274370087,2018_Dec_04_1656,None,TimingTask,001,eaw52,
2.7,1.8,left,3.2,4.2,6.0,0,0,0,0,1,2,22,7,,,right,0,1.63800676516,2018_Dec_04_1656,None,TimingTask,001,eaw52,
1.5,2.5,right,2.0,3.0,5.5,0,0,0,0,1,3,23,11,,,right,1,0.534033141099,2018_Dec_04_1656,None,TimingTask,001,eaw52,
1.8,2.7,right,2.3,3.3,6.0,0,0,0,0,1,4,24,17,,,right,1,0.950540045043,2018_Dec_04_1656,None,TimingTask,001,eaw52,
4.4,3.3,left,4.9,5.9,9.2,0,0,0,0,1,5,25,13,,,left,1,1.28419612744,2018_Dec_04_1656,None,TimingTask,001,eaw52,
8.8,9.9,right,9.3,10.3,20.2,0,0,0,0,1,6,26,14,,,right,1,0.000185457523912,2018_Dec_04_1656,None,TimingTask,001,eaw52,
1.2,1.8,right,1.7,2.7,4.5,0,0,0,0,1,7,27,2,,,right,1,0.00019882642664,2018_Dec_04_1656,None,TimingTask,001,eaw52,
1.8,0.9,left,2.3,3.3,4.2,0,0,0,0,1,8,28,5,,,right,0,0.000173795269802,2018_Dec_04_1656,None,TimingTask,001,eaw52,
0.7,1.4,right,1.2,2.2,3.6,0,0,0,0,1,9,29,0,,,right,1,0.000172373140231,2018_Dec_04_1656,None,TimingTask,001,eaw52,
1.4,0.7,left,1.9,2.9,3.6,0,0,0,0,1,10,30,10,,,left,1,1.49674197985,2018_Dec_04_1656,None,TimingTask,001,eaw52,
3.2,3.6,right,3.7,4.7,8.3,0,0,0,0,1,11,31,9,,,right,1,0.446487573208,2018_Dec_04_1656,None,TimingTask,001,eaw52,
3.5,2.1,left,4.0,5.0,7.1,0,0,0,0,1,12,32,16,,,left,1,0.917237071553,2018_Dec_04_1656,None,TimingTask,001,eaw52,
2.1,2.8,right,2.6,3.6,6.4,0,0,0,0,1,13,33,18,,,right,1,0.563281651586,2018_Dec_04_1656,None,TimingTask,001,eaw52,
2.5,1.5,left,3.0,4.0,5.5,0,0,0,0,1,14,34,1,,,left,1,0.883789031301,2018_Dec_04_1656,None,TimingTask,001,eaw52,
1.8,1.2,left,2.3,3.3,4.5,0,0,0,0,1,15,35,12,,,left,1,0.700072703883,2018_Dec_04_1656,None,TimingTask,001,eaw52,
2.1,3.5,right,2.6,3.6,7.1,0,0,0,0,1,16,36,6,,,right,1,0.396608917043,2018_Dec_04_1656,None,TimingTask,001,eaw52,
3.6,3.2,left,4.1,5.1,8.3,0,0,0,0,1,17,37,19,,,left,1,1.54656403163,2018_Dec_04_1656,None,TimingTask,001,eaw52,
9.9,8.8,left,10.4,11.4,20.2,0,0,0,0,1,18,38,4,,,right,0,0.70047064079,2018_Dec_04_1656,None,TimingTask,001,eaw52,
2.8,2.1,left,3.3,4.3,6.4,0,0,0,0,1,19,39,8,,,left,1,0.971377550391,2018_Dec_04_1656,None,TimingTask,001,eaw52,
,,,,,,0,0,0,0,,,,,,,,,,2018_Dec_04_1656,None,TimingTask,001,eaw52,
1.4,0.7,left,1.9,2.9,3.6,1,0,1,0,0,0,0,10,space,2.25496496772,left,1,1.20070672943,2018_Dec_04_1656,None,TimingTask,001,eaw52,
1.2,1.8,right,1.7,2.7,4.5,1,0,1,0,0,1,1,2,,,right,1,0.384335163748,2018_Dec_04_1656,None,TimingTask,001,eaw52,
2.1,2.8,right,2.6,3.6,6.4,1,0,1,0,0,2,2,18,,,right,1,0.284126438666,2018_Dec_04_1656,None,TimingTask,001,eaw52,
9.9,8.8,left,10.4,11.4,20.2,1,0,1,0,0,3,3,4,,,right,0,0.613198423525,2018_Dec_04_1656,None,TimingTask,001,eaw52,
1.5,2.5,right,2.0,3.0,5.5,1,0,1,0,0,4,4,11,,,right,1,0.579885778716,2018_Dec_04_1656,None,TimingTask,001,eaw52,
1.8,2.7,right,2.3,3.3,6.0,1,0,1,0,0,5,5,17,,,left,0,1.38853383972,2018_Dec_04_1656,None,TimingTask,001,eaw52,
0.7,1.4,right,1.2,2.2,3.6,1,0,1,0,0,6,6,0,,,right,1,0.283948377008,2018_Dec_04_1656,None,TimingTask,001,eaw52,
1.8,0.9,left,2.3,3.3,4.2,1,0,1,0,0,7,7,5,,,left,1,1.02985750488,2018_Dec_04_1656,None,TimingTask,001,eaw52,
0.9,1.8,right,1.4,2.4,4.2,1,0,1,0,0,8,8,15,,,left,0,1.85372274462,2018_Dec_04_1656,None,TimingTask,001,eaw52,
2.8,2.1,left,3.3,4.3,6.4,1,0,1,0,0,9,9,8,,,left,1,2.39660066809,2018_Dec_04_1656,None,TimingTask,001,eaw52,
3.3,4.4,right,3.8,4.8,9.2,1,0,1,0,0,10,10,3,,,right,1,0.629983172286,2018_Dec_04_1656,None,TimingTask,001,eaw52,
2.7,1.8,left,3.2,4.2,6.0,1,0,1,0,0,11,11,7,,,left,1,1.32141560875,2018_Dec_04_1656,None,TimingTask,001,eaw52,
3.6,3.2,left,4.1,5.1,8.3,1,0,1,0,0,12,12,19,,,left,1,0.888048863038,2018_Dec_04_1656,None,TimingTask,001,eaw52,
1.8,1.2,left,2.3,3.3,4.5,1,0,1,0,0,13,13,12,,,left,1,1.15010786126,2018_Dec_04_1656,None,TimingTask,001,eaw52,
3.5,2.1,left,4.0,5.0,7.1,1,0,1,0,0,14,14,16,,,left,1,0.916800165782,2018_Dec_04_1656,None,TimingTask,001,eaw52,
3.2,3.6,right,3.7,4.7,8.3,1,0,1,0,0,15,15,9,,,right,1,0.917112769559,2018_Dec_04_1656,None,TimingTask,001,eaw52,
2.5,1.5,left,3.0,4.0,5.5,1,0,1,0,0,16,16,1,,,left,1,1.31299521681,2018_Dec_04_1656,None,TimingTask,001,eaw52,
2.1,3.5,right,2.6,3.6,7.1,1,0,1,0,0,17,17,6,,,right,1,1.08391435747,2018_Dec_04_1656,None,TimingTask,001,eaw52,
8.8,9.9,right,9.3,10.3,20.2,1,0,1,0,0,18,18,14,,,right,1,0.45466135256,2018_Dec_04_1656,None,TimingTask,001,eaw52,
4.4,3.3,left,4.9,5.9,9.2,1,0,1,0,0,19,19,13,,,left,1,1.48429756006,2018_Dec_04_1656,None,TimingTask,001,eaw52,
2.1,3.5,right,2.6,3.6,7.1,1,0,1,0,1,0,20,6,,,right,1,1.08799100691,2018_Dec_04_1656,None,TimingTask,001,eaw52,
2.8,2.1,left,3.3,4.3,6.4,1,0,1,0,1,1,21,8,,,left,1,1.02152500604,2018_Dec_04_1656,None,TimingTask,001,eaw52,
0.7,1.4,right,1.2,2.2,3.6,1,0,1,0,1,2,22,0,,,right,1,0.317400683649,2018_Dec_04_1656,None,TimingTask,001,eaw52,
1.2,1.8,right,1.7,2.7,4.5,1,0,1,0,1,3,23,2,,,right,1,0.304827410961,2018_Dec_04_1656,None,TimingTask,001,eaw52,
1.8,1.2,left,2.3,3.3,4.5,1,0,1,0,1,4,24,12,,,left,1,0.729917693185,2018_Dec_04_1656,None,TimingTask,001,eaw52,
1.4,0.7,left,1.9,2.9,3.6,1,0,1,0,1,5,25,10,,,left,1,0.967230358627,2018_Dec_04_1656,None,TimingTask,001,eaw52,
3.5,2.1,left,4.0,5.0,7.1,1,0,1,0,1,6,26,16,,,left,1,0.946551857516,2018_Dec_04_1656,None,TimingTask,001,eaw52,
1.8,2.7,right,2.3,3.3,6.0,1,0,1,0,1,7,27,17,,,right,1,0.846479381202,2018_Dec_04_1656,None,TimingTask,001,eaw52,
4.4,3.3,left,4.9,5.9,9.2,1,0,1,0,1,8,28,13,,,left,1,1.30476454878,2018_Dec_04_1656,None,TimingTask,001,eaw52,
3.6,3.2,left,4.1,5.1,8.3,1,0,1,0,1,9,29,19,,,left,1,1.53396231448,2018_Dec_04_1656,None,TimingTask,001,eaw52,
2.7,1.8,left,3.2,4.2,6.0,1,0,1,0,1,10,30,7,,,left,1,0.950425698655,2018_Dec_04_1656,None,TimingTask,001,eaw52,
1.5,2.5,right,2.0,3.0,5.5,1,0,1,0,1,11,31,11,,,right,1,2.12944528903,2018_Dec_04_1656,None,TimingTask,001,eaw52,
8.8,9.9,right,9.3,10.3,20.2,1,0,1,0,1,12,32,14,,,right,1,0.533787666121,2018_Dec_04_1656,None,TimingTask,001,eaw52,
2.5,1.5,left,3.0,4.0,5.5,1,0,1,0,1,13,33,1,,,left,1,0.529878269415,2018_Dec_04_1656,None,TimingTask,001,eaw52,
9.9,8.8,left,10.4,11.4,20.2,1,0,1,0,1,14,34,4,,,left,1,1.01713660592,2018_Dec_04_1656,None,TimingTask,001,eaw52,
1.8,0.9,left,2.3,3.3,4.2,1,0,1,0,1,15,35,5,,,left,1,0.663513416657,2018_Dec_04_1656,None,TimingTask,001,eaw52,
3.2,3.6,right,3.7,4.7,8.3,1,0,1,0,1,16,36,9,,,right,1,0.32150862203,2018_Dec_04_1656,None,TimingTask,001,eaw52,
0.9,1.8,right,1.4,2.4,4.2,1,0,1,0,1,17,37,15,,,right,1,0.996557091363,2018_Dec_04_1656,None,TimingTask,001,eaw52,
3.3,4.4,right,3.8,4.8,9.2,1,0,1,0,1,18,38,3,,,right,1,0.600721292663,2018_Dec_04_1656,None,TimingTask,001,eaw52,
2.1,2.8,right,2.6,3.6,6.4,1,0,1,0,1,19,39,18,,,left,0,1.15060080215,2018_Dec_04_1656,None,TimingTask,001,eaw52,
,,,,,,1,0,1,0,,,,,,,,,,2018_Dec_04_1656,None,TimingTask,001,eaw52,
