firstTime,secondTime,corrAns,plusStart,secondStart,respStart,Block.thisRepN,Block.thisTrialN,Block.thisN,Block.thisIndex,trials.thisRepN,trials.thisTrialN,trials.thisN,trials.thisIndex,key_resp_2.keys,key_resp_2.rt,rtRound1_3.keys,rtRound1_3.corr,rtRound1_3.rt,date,frameRate,expName,session,participant,
1.2,1.8,right,1.7,2.7,4.5,0,0,0,0,0,0,0,2,space,1.65089801932,right,1,0.288284931332,2018_Dec_04_1656,None,TimingTask,001,elianar,
2.8,2.1,left,3.3,4.3,6.4,0,0,0,0,0,1,1,8,,,left,1,0.504132976755,2018_Dec_04_1656,None,TimingTask,001,elianar,
0.9,1.8,right,1.4,2.4,4.2,0,0,0,0,0,2,2,15,,,right,1,0.304521868937,2018_Dec_04_1656,None,TimingTask,001,elianar,
1.5,2.5,right,2.0,3.0,5.5,0,0,0,0,0,3,3,11,,,right,1,0.246468480909,2018_Dec_04_1656,None,TimingTask,001,elianar,
1.4,0.7,left,1.9,2.9,3.6,0,0,0,0,0,4,4,10,,,left,1,0.56734362524,2018_Dec_04_1656,None,TimingTask,001,elianar,
8.8,9.9,right,9.3,10.3,20.2,0,0,0,0,0,5,5,14,,,right,1,0.654750249349,2018_Dec_04_1656,None,TimingTask,001,elianar,
1.8,2.7,right,2.3,3.3,6.0,0,0,0,0,0,6,6,17,,,right,1,0.362681639148,2018_Dec_04_1656,None,TimingTask,001,elianar,
1.8,1.2,left,2.3,3.3,4.5,0,0,0,0,0,7,7,12,,,left,1,0.929832695518,2018_Dec_04_1656,None,TimingTask,001,elianar,
1.8,0.9,left,2.3,3.3,4.2,0,0,0,0,0,8,8,5,,,left,1,0.700474111829,2018_Dec_04_1656,None,TimingTask,001,elianar,
3.6,3.2,left,4.1,5.1,8.3,0,0,0,0,0,9,9,19,,,left,1,0.750871395227,2018_Dec_04_1656,None,TimingTask,001,elianar,
2.1,3.5,right,2.6,3.6,7.1,0,0,0,0,0,10,10,6,,,right,1,0.434131787624,2018_Dec_04_1656,None,TimingTask,001,elianar,
2.5,1.5,left,3.0,4.0,5.5,0,0,0,0,0,11,11,1,,,right,0,0.754751500674,2018_Dec_04_1656,None,TimingTask,001,elianar,
3.5,2.1,left,4.0,5.0,7.1,0,0,0,0,0,12,12,16,,,left,1,0.546395720216,2018_Dec_04_1656,None,TimingTask,001,elianar,
4.4,3.3,left,4.9,5.9,9.2,0,0,0,0,0,13,13,13,,,left,1,0.79631536454,2018_Dec_04_1656,None,TimingTask,001,elianar,
3.2,3.6,right,3.7,4.7,8.3,0,0,0,0,0,14,14,9,,,right,1,0.500669582048,2018_Dec_04_1656,None,TimingTask,001,elianar,
2.7,1.8,left,3.2,4.2,6.0,0,0,0,0,0,15,15,7,,,left,1,0.604890565621,2018_Dec_04_1656,None,TimingTask,001,elianar,
0.7,1.4,right,1.2,2.2,3.6,0,0,0,0,0,16,16,0,,,right,1,0.317350594094,2018_Dec_04_1656,None,TimingTask,001,elianar,
3.3,4.4,right,3.8,4.8,9.2,0,0,0,0,0,17,17,3,,,right,1,0.383843730902,2018_Dec_04_1656,None,TimingTask,001,elianar,
9.9,8.8,left,10.4,11.4,20.2,0,0,0,0,0,18,18,4,,,left,1,0.671478138072,2018_Dec_04_1656,None,TimingTask,001,elianar,
2.1,2.8,right,2.6,3.6,6.4,0,0,0,0,0,19,19,18,,,left,0,0.663424948929,2018_Dec_04_1656,None,TimingTask,001,elianar,
3.5,2.1,left,4.0,5.0,7.1,0,0,0,0,1,0,20,16,,,left,1,0.663267082302,2018_Dec_04_1656,None,TimingTask,001,elianar,
4.4,3.3,left,4.9,5.9,9.2,0,0,0,0,1,1,21,13,,,left,1,0.600646940293,2018_Dec_04_1656,None,TimingTask,001,elianar,
1.4,0.7,left,1.9,2.9,3.6,0,0,0,0,1,2,22,10,,,left,1,0.650657379301,2018_Dec_04_1656,None,TimingTask,001,elianar,
2.7,1.8,left,3.2,4.2,6.0,0,0,0,0,1,3,23,7,,,left,1,0.529958533822,2018_Dec_04_1656,None,TimingTask,001,elianar,
1.2,1.8,right,1.7,2.7,4.5,0,0,0,0,1,4,24,2,,,right,1,0.666691223625,2018_Dec_04_1656,None,TimingTask,001,elianar,
1.5,2.5,right,2.0,3.0,5.5,0,0,0,0,1,5,25,11,,,right,1,0.350744078169,2018_Dec_04_1656,None,TimingTask,001,elianar,
2.8,2.1,left,3.3,4.3,6.4,0,0,0,0,1,6,26,8,,,right,0,0.617302295519,2018_Dec_04_1656,None,TimingTask,001,elianar,
1.8,1.2,left,2.3,3.3,4.5,0,0,0,0,1,7,27,12,,,left,1,0.554693815531,2018_Dec_04_1656,None,TimingTask,001,elianar,
0.9,1.8,right,1.4,2.4,4.2,0,0,0,0,1,8,28,15,,,right,1,0.334075069521,2018_Dec_04_1656,None,TimingTask,001,elianar,
2.1,3.5,right,2.6,3.6,7.1,0,0,0,0,1,9,29,6,,,right,1,0.354762423551,2018_Dec_04_1656,None,TimingTask,001,elianar,
3.3,4.4,right,3.8,4.8,9.2,0,0,0,0,1,10,30,3,,,right,1,0.321832299698,2018_Dec_04_1656,None,TimingTask,001,elianar,
2.1,2.8,right,2.6,3.6,6.4,0,0,0,0,1,11,31,18,,,left,0,1.03820855799,2018_Dec_04_1656,None,TimingTask,001,elianar,
3.6,3.2,left,4.1,5.1,8.3,0,0,0,0,1,12,32,19,,,left,1,0.800597389927,2018_Dec_04_1656,None,TimingTask,001,elianar,
3.2,3.6,right,3.7,4.7,8.3,0,0,0,0,1,13,33,9,,,right,1,0.633955090772,2018_Dec_04_1656,None,TimingTask,001,elianar,
2.5,1.5,left,3.0,4.0,5.5,0,0,0,0,1,14,34,1,,,left,1,0.588040081551,2018_Dec_04_1656,None,TimingTask,001,elianar,
8.8,9.9,right,9.3,10.3,20.2,0,0,0,0,1,15,35,14,,,right,1,0.488303363323,2018_Dec_04_1656,None,TimingTask,001,elianar,
9.9,8.8,left,10.4,11.4,20.2,0,0,0,0,1,16,36,4,,,left,1,0.76747242175,2018_Dec_04_1656,None,TimingTask,001,elianar,
1.8,0.9,left,2.3,3.3,4.2,0,0,0,0,1,17,37,5,,,left,1,0.621170454426,2018_Dec_04_1656,None,TimingTask,001,elianar,
1.8,2.7,right,2.3,3.3,6.0,0,0,0,0,1,18,38,17,,,right,1,0.371451911982,2018_Dec_04_1656,None,TimingTask,001,elianar,
0.7,1.4,right,1.2,2.2,3.6,0,0,0,0,1,19,39,0,,,right,1,0.317670025164,2018_Dec_04_1656,None,TimingTask,001,elianar,
,,,,,,0,0,0,0,,,,,,,,,,2018_Dec_04_1656,None,TimingTask,001,elianar,
2.7,1.8,left,3.2,4.2,6.0,1,0,1,0,0,0,0,7,space,2.1341391264,left,1,0.662800024729,2018_Dec_04_1656,None,TimingTask,001,elianar,
2.1,2.8,right,2.6,3.6,6.4,1,0,1,0,0,1,1,18,,,right,1,0.583882358391,2018_Dec_04_1656,None,TimingTask,001,elianar,
2.1,3.5,right,2.6,3.6,7.1,1,0,1,0,0,2,2,6,,,right,1,0.313505475409,2018_Dec_04_1656,None,TimingTask,001,elianar,
9.9,8.8,left,10.4,11.4,20.2,1,0,1,0,0,3,3,4,,,left,1,0.583440331742,2018_Dec_04_1656,None,TimingTask,001,elianar,
1.8,1.2,left,2.3,3.3,4.5,1,0,1,0,0,4,4,12,,,left,1,0.713232579175,2018_Dec_04_1656,None,TimingTask,001,elianar,
3.3,4.4,right,3.8,4.8,9.2,1,0,1,0,0,5,5,3,,,right,1,0.31748257624,2018_Dec_04_1656,None,TimingTask,001,elianar,
1.8,0.9,left,2.3,3.3,4.2,1,0,1,0,0,6,6,5,,,left,1,0.667339187814,2018_Dec_04_1656,None,TimingTask,001,elianar,
0.9,1.8,right,1.4,2.4,4.2,1,0,1,0,0,7,7,15,,,right,1,0.316930754343,2018_Dec_04_1656,None,TimingTask,001,elianar,
1.4,0.7,left,1.9,2.9,3.6,1,0,1,0,0,8,8,10,,,left,1,0.717402249109,2018_Dec_04_1656,None,TimingTask,001,elianar,
3.6,3.2,left,4.1,5.1,8.3,1,0,1,0,0,9,9,19,,,left,1,0.654673164943,2018_Dec_04_1656,None,TimingTask,001,elianar,
1.8,2.7,right,2.3,3.3,6.0,1,0,1,0,0,10,10,17,,,right,1,0.538247526856,2018_Dec_04_1656,None,TimingTask,001,elianar,
1.2,1.8,right,1.7,2.7,4.5,1,0,1,0,0,11,11,2,,,right,1,0.34651524364,2018_Dec_04_1656,None,TimingTask,001,elianar,
3.5,2.1,left,4.0,5.0,7.1,1,0,1,0,0,12,12,16,,,left,1,0.546590280021,2018_Dec_04_1656,None,TimingTask,001,elianar,
2.5,1.5,left,3.0,4.0,5.5,1,0,1,0,0,13,13,1,,,left,1,0.683873938629,2018_Dec_04_1656,None,TimingTask,001,elianar,
8.8,9.9,right,9.3,10.3,20.2,1,0,1,0,0,14,14,14,,,right,1,0.466871333774,2018_Dec_04_1656,None,TimingTask,001,elianar,
2.8,2.1,left,3.3,4.3,6.4,1,0,1,0,0,15,15,8,,,left,1,0.584125842666,2018_Dec_04_1656,None,TimingTask,001,elianar,
1.5,2.5,right,2.0,3.0,5.5,1,0,1,0,0,16,16,11,,,right,1,0.350840220228,2018_Dec_04_1656,None,TimingTask,001,elianar,
0.7,1.4,right,1.2,2.2,3.6,1,0,1,0,0,17,17,0,,,right,1,0.821586255217,2018_Dec_04_1656,None,TimingTask,001,elianar,
3.2,3.6,right,3.7,4.7,8.3,1,0,1,0,0,18,18,9,,,right,1,0.900678570382,2018_Dec_04_1656,None,TimingTask,001,elianar,
4.4,3.3,left,4.9,5.9,9.2,1,0,1,0,0,19,19,13,,,left,1,0.421448982321,2018_Dec_04_1656,None,TimingTask,001,elianar,
1.5,2.5,right,2.0,3.0,5.5,1,0,1,0,1,0,20,11,,,right,1,0.633899623994,2018_Dec_04_1656,None,TimingTask,001,elianar,
2.5,1.5,left,3.0,4.0,5.5,1,0,1,0,1,1,21,1,,,left,1,0.550740323495,2018_Dec_04_1656,None,TimingTask,001,elianar,
1.8,0.9,left,2.3,3.3,4.2,1,0,1,0,1,2,22,5,,,left,1,0.5381983181,2018_Dec_04_1656,None,TimingTask,001,elianar,
0.7,1.4,right,1.2,2.2,3.6,1,0,1,0,1,3,23,0,,,right,1,0.350831402466,2018_Dec_04_1656,None,TimingTask,001,elianar,
2.8,2.1,left,3.3,4.3,6.4,1,0,1,0,1,4,24,8,,,left,1,0.616927682189,2018_Dec_04_1656,None,TimingTask,001,elianar,
1.2,1.8,right,1.7,2.7,4.5,1,0,1,0,1,5,25,2,,,right,1,0.404700044775,2018_Dec_04_1656,None,TimingTask,001,elianar,
3.6,3.2,left,4.1,5.1,8.3,1,0,1,0,1,6,26,19,,,left,1,0.983982937876,2018_Dec_04_1656,None,TimingTask,001,elianar,
9.9,8.8,left,10.4,11.4,20.2,1,0,1,0,1,7,27,4,,,left,1,0.633894219762,2018_Dec_04_1656,None,TimingTask,001,elianar,
3.5,2.1,left,4.0,5.0,7.1,1,0,1,0,1,8,28,16,,,left,1,0.700755427359,2018_Dec_04_1656,None,TimingTask,001,elianar,
1.4,0.7,left,1.9,2.9,3.6,1,0,1,0,1,9,29,10,,,left,1,0.671384555753,2018_Dec_04_1656,None,TimingTask,001,elianar,
3.3,4.4,right,3.8,4.8,9.2,1,0,1,0,1,10,30,3,,,right,1,0.379886540817,2018_Dec_04_1656,None,TimingTask,001,elianar,
1.8,1.2,left,2.3,3.3,4.5,1,0,1,0,1,11,31,12,,,left,1,0.521479247371,2018_Dec_04_1656,None,TimingTask,001,elianar,
4.4,3.3,left,4.9,5.9,9.2,1,0,1,0,1,12,32,13,,,left,1,0.684069636511,2018_Dec_04_1656,None,TimingTask,001,elianar,
3.2,3.6,right,3.7,4.7,8.3,1,0,1,0,1,13,33,9,,,right,1,0.530017413665,2018_Dec_04_1656,None,TimingTask,001,elianar,
2.7,1.8,left,3.2,4.2,6.0,1,0,1,0,1,14,34,7,,,left,1,0.53405367909,2018_Dec_04_1656,None,TimingTask,001,elianar,
2.1,2.8,right,2.6,3.6,6.4,1,0,1,0,1,15,35,18,,,right,1,0.420530227013,2018_Dec_04_1656,None,TimingTask,001,elianar,
2.1,3.5,right,2.6,3.6,7.1,1,0,1,0,1,16,36,6,,,right,1,0.350756878033,2018_Dec_04_1656,None,TimingTask,001,elianar,
1.8,2.7,right,2.3,3.3,6.0,1,0,1,0,1,17,37,17,,,right,1,0.879842167487,2018_Dec_04_1656,None,TimingTask,001,elianar,
8.8,9.9,right,9.3,10.3,20.2,1,0,1,0,1,18,38,14,,,left,0,0.767174324021,2018_Dec_04_1656,None,TimingTask,001,elianar,
0.9,1.8,right,1.4,2.4,4.2,1,0,1,0,1,19,39,15,,,right,1,0.73800626141,2018_Dec_04_1656,None,TimingTask,001,elianar,
,,,,,,1,0,1,0,,,,,,,,,,2018_Dec_04_1656,None,TimingTask,001,elianar,
