firstTime,secondTime,corrAns,plusStart,secondStart,respStart,Block.thisRepN,Block.thisTrialN,Block.thisN,Block.thisIndex,trials.thisRepN,trials.thisTrialN,trials.thisN,trials.thisIndex,key_resp_2.keys,key_resp_2.rt,rtRound1_3.keys,rtRound1_3.corr,rtRound1_3.rt,date,frameRate,expName,session,participant,
1.8,0.9,left,2.3,3.3,4.2,0,0,0,0,0,0,0,5,space,0.788217578316,left,1,1.10048932955,2018_Dec_04_1656,None,TimingTask,001,lau,
8.8,9.9,right,9.3,10.3,20.2,0,0,0,0,0,1,1,14,,,right,1,0.879836797249,2018_Dec_04_1656,None,TimingTask,001,lau,
2.7,1.8,left,3.2,4.2,6.0,0,0,0,0,0,2,2,7,,,left,1,0.85068808496,2018_Dec_04_1656,None,TimingTask,001,lau,
2.5,1.5,left,3.0,4.0,5.5,0,0,0,0,0,3,3,1,,,left,1,1.00059107528,2018_Dec_04_1656,None,TimingTask,001,lau,
3.3,4.4,right,3.8,4.8,9.2,0,0,0,0,0,4,4,3,,,right,1,0.717320978642,2018_Dec_04_1656,None,TimingTask,001,lau,
1.5,2.5,right,2.0,3.0,5.5,0,0,0,0,0,5,5,11,,,left,0,0.000123733421788,2018_Dec_04_1656,None,TimingTask,001,lau,
1.8,1.2,left,2.3,3.3,4.5,0,0,0,0,0,6,6,12,,,right,0,0.000176924513653,2018_Dec_04_1656,None,TimingTask,001,lau,
0.9,1.8,right,1.4,2.4,4.2,0,0,0,0,0,7,7,15,,,right,1,0.000178915448487,2018_Dec_04_1656,None,TimingTask,001,lau,
2.8,2.1,left,3.3,4.3,6.4,0,0,0,0,0,8,8,8,,,left,1,0.000175786437467,2018_Dec_04_1656,None,TimingTask,001,lau,
1.8,2.7,right,2.3,3.3,6.0,0,0,0,0,0,9,9,17,,,right,1,0.000178346410394,2018_Dec_04_1656,None,TimingTask,001,lau,
4.4,3.3,left,4.9,5.9,9.2,0,0,0,0,0,10,10,13,,,left,1,0.988246762194,2018_Dec_04_1656,None,TimingTask,001,lau,
0.7,1.4,right,1.2,2.2,3.6,0,0,0,0,0,11,11,0,,,right,1,0.00017635547556,2018_Dec_04_1656,None,TimingTask,001,lau,
9.9,8.8,left,10.4,11.4,20.2,0,0,0,0,0,12,12,4,,,left,1,1.32113446598,2018_Dec_04_1656,None,TimingTask,001,lau,
3.2,3.6,right,3.7,4.7,8.3,0,0,0,0,0,13,13,9,,,right,1,0.000176639994606,2018_Dec_04_1656,None,TimingTask,001,lau,
2.1,2.8,right,2.6,3.6,6.4,0,0,0,0,0,14,14,18,,,right,1,0.667402429273,2018_Dec_04_1656,None,TimingTask,001,lau,
2.1,3.5,right,2.6,3.6,7.1,0,0,0,0,0,15,15,6,,,right,1,0.000176924280822,2018_Dec_04_1656,None,TimingTask,001,lau,
3.6,3.2,left,4.1,5.1,8.3,0,0,0,0,0,16,16,19,,,left,1,0.654823449673,2018_Dec_04_1656,None,TimingTask,001,lau,
1.4,0.7,left,1.9,2.9,3.6,0,0,0,0,0,17,17,10,,,left,1,0.900244821096,2018_Dec_04_1656,None,TimingTask,001,lau,
1.2,1.8,right,1.7,2.7,4.5,0,0,0,0,0,18,18,2,,,right,1,0.334245071979,2018_Dec_04_1656,None,TimingTask,001,lau,
3.5,2.1,left,4.0,5.0,7.1,0,0,0,0,0,19,19,16,,,right,0,6.20088540018e-05,2018_Dec_04_1656,None,TimingTask,001,lau,
3.2,3.6,right,3.7,4.7,8.3,0,0,0,0,1,0,20,9,,,right,1,0.000178346643224,2018_Dec_04_1656,None,TimingTask,001,lau,
9.9,8.8,left,10.4,11.4,20.2,0,0,0,0,1,1,21,4,,,right,0,0.762952099321,2018_Dec_04_1656,None,TimingTask,001,lau,
2.7,1.8,left,3.2,4.2,6.0,0,0,0,0,1,2,22,7,,,left,1,0.704871136928,2018_Dec_04_1656,None,TimingTask,001,lau,
3.6,3.2,left,4.1,5.1,8.3,0,0,0,0,1,3,23,19,,,left,1,0.550671331352,2018_Dec_04_1656,None,TimingTask,001,lau,
1.8,1.2,left,2.3,3.3,4.5,0,0,0,0,1,4,24,12,,,left,1,0.483947529225,2018_Dec_04_1656,None,TimingTask,001,lau,
2.5,1.5,left,3.0,4.0,5.5,0,0,0,0,1,5,25,1,,,right,0,0.684104997432,2018_Dec_04_1656,None,TimingTask,001,lau,
1.2,1.8,right,1.7,2.7,4.5,0,0,0,0,1,6,26,2,,,right,1,9.9555356428e-05,2018_Dec_04_1656,None,TimingTask,001,lau,
1.8,2.7,right,2.3,3.3,6.0,0,0,0,0,1,7,27,17,,,right,1,2.31733514392,2018_Dec_04_1656,None,TimingTask,001,lau,
1.8,0.9,left,2.3,3.3,4.2,0,0,0,0,1,8,28,5,,,left,1,1.06293756422,2018_Dec_04_1656,None,TimingTask,001,lau,
0.9,1.8,right,1.4,2.4,4.2,0,0,0,0,1,9,29,15,,,right,1,0.000175217632204,2018_Dec_04_1656,None,TimingTask,001,lau,
2.1,3.5,right,2.6,3.6,7.1,0,0,0,0,1,10,30,6,,,right,1,0.000163839897141,2018_Dec_04_1656,None,TimingTask,001,lau,
1.5,2.5,right,2.0,3.0,5.5,0,0,0,0,1,11,31,11,,,right,1,0.000192853156477,2018_Dec_04_1656,None,TimingTask,001,lau,
0.7,1.4,right,1.2,2.2,3.6,0,0,0,0,1,12,32,0,,,right,1,0.251077830326,2018_Dec_04_1656,None,TimingTask,001,lau,
2.1,2.8,right,2.6,3.6,6.4,0,0,0,0,1,13,33,18,,,right,1,0.00018716417253,2018_Dec_04_1656,None,TimingTask,001,lau,
2.8,2.1,left,3.3,4.3,6.4,0,0,0,0,1,14,34,8,,,left,1,0.429933835287,2018_Dec_04_1656,None,TimingTask,001,lau,
1.4,0.7,left,1.9,2.9,3.6,0,0,0,0,1,15,35,10,,,left,1,0.717274045339,2018_Dec_04_1656,None,TimingTask,001,lau,
3.5,2.1,left,4.0,5.0,7.1,0,0,0,0,1,16,36,16,,,left,1,0.863248575479,2018_Dec_04_1656,None,TimingTask,001,lau,
3.3,4.4,right,3.8,4.8,9.2,0,0,0,0,1,17,37,3,,,right,1,0.000175502151251,2018_Dec_04_1656,None,TimingTask,001,lau,
8.8,9.9,right,9.3,10.3,20.2,0,0,0,0,1,18,38,14,,,right,1,0.000174364307895,2018_Dec_04_1656,None,TimingTask,001,lau,
4.4,3.3,left,4.9,5.9,9.2,0,0,0,0,1,19,39,13,,,left,1,0.488066851161,2018_Dec_04_1656,None,TimingTask,001,lau,
,,,,,,0,0,0,0,,,,,,,,,,2018_Dec_04_1656,None,TimingTask,001,lau,
1.8,2.7,right,2.3,3.3,6.0,1,0,1,0,0,0,0,17,space,1.91745199356,right,1,0.000176070956513,2018_Dec_04_1656,None,TimingTask,001,lau,
0.7,1.4,right,1.2,2.2,3.6,1,0,1,0,0,1,1,0,,,right,1,0.000167253194377,2018_Dec_04_1656,None,TimingTask,001,lau,
1.2,1.8,right,1.7,2.7,4.5,1,0,1,0,0,2,2,2,,,right,1,0.100684173871,2018_Dec_04_1656,None,TimingTask,001,lau,
3.3,4.4,right,3.8,4.8,9.2,1,0,1,0,0,3,3,3,,,right,1,0.0341003185604,2018_Dec_04_1656,None,TimingTask,001,lau,
1.8,1.2,left,2.3,3.3,4.5,1,0,1,0,0,4,4,12,,,left,1,0.833819401218,2018_Dec_04_1656,None,TimingTask,001,lau,
2.8,2.1,left,3.3,4.3,6.4,1,0,1,0,0,5,5,8,,,left,1,1.567223144,2018_Dec_04_1656,None,TimingTask,001,lau,
1.8,0.9,left,2.3,3.3,4.2,1,0,1,0,0,6,6,5,,,right,0,0.667368011316,2018_Dec_04_1656,None,TimingTask,001,lau,
2.1,2.8,right,2.6,3.6,6.4,1,0,1,0,0,7,7,18,,,right,1,0.000180906616151,2018_Dec_04_1656,None,TimingTask,001,lau,
8.8,9.9,right,9.3,10.3,20.2,1,0,1,0,0,8,8,14,,,right,1,1.64635554352,2018_Dec_04_1656,None,TimingTask,001,lau,
1.4,0.7,left,1.9,2.9,3.6,1,0,1,0,0,9,9,10,,,left,1,0.483800187008,2018_Dec_04_1656,None,TimingTask,001,lau,
2.1,3.5,right,2.6,3.6,7.1,1,0,1,0,0,10,10,6,,,right,1,0.000179199967533,2018_Dec_04_1656,None,TimingTask,001,lau,
0.9,1.8,right,1.4,2.4,4.2,1,0,1,0,0,11,11,15,,,right,1,0.000178062124178,2018_Dec_04_1656,None,TimingTask,001,lau,
2.7,1.8,left,3.2,4.2,6.0,1,0,1,0,0,12,12,7,,,right,0,1.11737479526,2018_Dec_04_1656,None,TimingTask,001,lau,
2.5,1.5,left,3.0,4.0,5.5,1,0,1,0,0,13,13,1,,,left,1,0.800547669176,2018_Dec_04_1656,None,TimingTask,001,lau,
3.2,3.6,right,3.7,4.7,8.3,1,0,1,0,0,14,14,9,,,right,1,0.167465433478,2018_Dec_04_1656,None,TimingTask,001,lau,
1.5,2.5,right,2.0,3.0,5.5,1,0,1,0,0,15,15,11,,,right,1,0.00017635547556,2018_Dec_04_1656,None,TimingTask,001,lau,
3.5,2.1,left,4.0,5.0,7.1,1,0,1,0,0,16,16,16,,,left,1,0.929892448941,2018_Dec_04_1656,None,TimingTask,001,lau,
3.6,3.2,left,4.1,5.1,8.3,1,0,1,0,0,17,17,19,,,right,0,0.533977296203,2018_Dec_04_1656,None,TimingTask,001,lau,
4.4,3.3,left,4.9,5.9,9.2,1,0,1,0,0,18,18,13,,,left,1,0.800586069003,2018_Dec_04_1656,None,TimingTask,001,lau,
9.9,8.8,left,10.4,11.4,20.2,1,0,1,0,0,19,19,4,,,right,0,0.88826260576,2018_Dec_04_1656,None,TimingTask,001,lau,
1.8,2.7,right,2.3,3.3,6.0,1,0,1,0,1,0,20,17,,,right,1,1.55490841321,2018_Dec_04_1656,None,TimingTask,001,lau,
2.1,3.5,right,2.6,3.6,7.1,1,0,1,0,1,1,21,6,,,right,1,0.000176639994606,2018_Dec_04_1656,None,TimingTask,001,lau,
0.7,1.4,right,1.2,2.2,3.6,1,0,1,0,1,2,22,0,,,left,0,1.20469008805,2018_Dec_04_1656,None,TimingTask,001,lau,
4.4,3.3,left,4.9,5.9,9.2,1,0,1,0,1,3,23,13,,,left,1,0.467307254206,2018_Dec_04_1656,None,TimingTask,001,lau,
1.4,0.7,left,1.9,2.9,3.6,1,0,1,0,1,4,24,10,,,left,1,1.0506051979,2018_Dec_04_1656,None,TimingTask,001,lau,
2.5,1.5,left,3.0,4.0,5.5,1,0,1,0,1,5,25,1,,,left,1,1.07091707969,2018_Dec_04_1656,None,TimingTask,001,lau,
3.2,3.6,right,3.7,4.7,8.3,1,0,1,0,1,6,26,9,,,right,1,0.788244884927,2018_Dec_04_1656,None,TimingTask,001,lau,
3.6,3.2,left,4.1,5.1,8.3,1,0,1,0,1,7,27,19,,,right,0,1.42977454676,2018_Dec_04_1656,None,TimingTask,001,lau,
3.3,4.4,right,3.8,4.8,9.2,1,0,1,0,1,8,28,3,,,right,1,0.000175502151251,2018_Dec_04_1656,None,TimingTask,001,lau,
1.8,0.9,left,2.3,3.3,4.2,1,0,1,0,1,9,29,5,,,left,1,1.65472702309,2018_Dec_04_1656,None,TimingTask,001,lau,
1.2,1.8,right,1.7,2.7,4.5,1,0,1,0,1,10,30,2,,,right,1,0.000179199734703,2018_Dec_04_1656,None,TimingTask,001,lau,
2.7,1.8,left,3.2,4.2,6.0,1,0,1,0,1,11,31,7,,,left,1,0.483956346987,2018_Dec_04_1656,None,TimingTask,001,lau,
8.8,9.9,right,9.3,10.3,20.2,1,0,1,0,1,12,32,14,,,right,1,0.5380846716,2018_Dec_04_1656,None,TimingTask,001,lau,
3.5,2.1,left,4.0,5.0,7.1,1,0,1,0,1,13,33,16,,,left,1,1.26726583904,2018_Dec_04_1656,None,TimingTask,001,lau,
2.8,2.1,left,3.3,4.3,6.4,1,0,1,0,1,14,34,8,,,left,1,7.36711081117e-05,2018_Dec_04_1656,None,TimingTask,001,lau,
0.9,1.8,right,1.4,2.4,4.2,1,0,1,0,1,15,35,15,,,right,1,0.000107804313302,2018_Dec_04_1656,None,TimingTask,001,lau,
1.5,2.5,right,2.0,3.0,5.5,1,0,1,0,1,16,36,11,,,right,1,0.000176924280822,2018_Dec_04_1656,None,TimingTask,001,lau,
9.9,8.8,left,10.4,11.4,20.2,1,0,1,0,1,17,37,4,,,right,0,1.03806604049,2018_Dec_04_1656,None,TimingTask,001,lau,
2.1,2.8,right,2.6,3.6,6.4,1,0,1,0,1,18,38,18,,,right,1,0.000177208799869,2018_Dec_04_1656,None,TimingTask,001,lau,
1.8,1.2,left,2.3,3.3,4.5,1,0,1,0,1,19,39,12,,,left,1,0.634075514739,2018_Dec_04_1656,None,TimingTask,001,lau,
,,,,,,1,0,1,0,,,,,,,,,,2018_Dec_04_1656,None,TimingTask,001,lau,
