firstTime,secondTime,corrAns,plusStart,secondStart,respStart,Block.thisRepN,Block.thisTrialN,Block.thisN,Block.thisIndex,trials.thisRepN,trials.thisTrialN,trials.thisN,trials.thisIndex,key_resp_2.keys,key_resp_2.rt,rtRound1_3.keys,rtRound1_3.corr,rtRound1_3.rt,date,frameRate,expName,session,participant
2.8,2.1,left,3.3,4.3,6.4,0,0,0,0,0,0,0,8,space,1.284345134,left,1,0.933215365,2018_Dec_04_1655,None,TimingTask,1,aaylward
2.1,2.8,right,2.6,3.6,6.4,0,0,0,0,0,1,1,18,,,right,1,1.254797932,2018_Dec_04_1655,None,TimingTask,1,aaylward
1.8,2.7,right,2.3,3.3,6,0,0,0,0,0,2,2,17,,,right,1,0.504793879,2018_Dec_04_1655,None,TimingTask,1,aaylward
2.1,3.5,right,2.6,3.6,7.1,0,0,0,0,0,3,3,6,,,right,1,0.354852005,2018_Dec_04_1655,None,TimingTask,1,aaylward
8.8,9.9,right,9.3,10.3,20.2,0,0,0,0,0,4,4,14,,,right,1,1.555180026,2018_Dec_04_1655,None,TimingTask,1,aaylward
9.9,8.8,left,10.4,11.4,20.2,0,0,0,0,0,5,5,4,,,left,1,1.117253555,2018_Dec_04_1655,None,TimingTask,1,aaylward
2.7,1.8,left,3.2,4.2,6,0,0,0,0,0,6,6,7,,,left,1,0.93380388,2018_Dec_04_1655,None,TimingTask,1,aaylward
2.5,1.5,left,3,4,5.5,0,0,0,0,0,7,7,1,,,right,0,1.15475922,2018_Dec_04_1655,None,TimingTask,1,aaylward
1.2,1.8,right,1.7,2.7,4.5,0,0,0,0,0,8,8,2,,,right,1,1.112437347,2018_Dec_04_1655,None,TimingTask,1,aaylward
1.4,0.7,left,1.9,2.9,3.6,0,0,0,0,0,9,9,10,,,left,1,1.00069575,2018_Dec_04_1655,None,TimingTask,1,aaylward
1.8,0.9,left,2.3,3.3,4.2,0,0,0,0,0,10,10,5,,,left,1,0.996496217,2018_Dec_04_1655,None,TimingTask,1,aaylward
3.5,2.1,left,4,5,7.1,0,0,0,0,0,11,11,16,,,left,1,1.063251555,2018_Dec_04_1655,None,TimingTask,1,aaylward
0.9,1.8,right,1.4,2.4,4.2,0,0,0,0,0,12,12,15,,,right,1,0.821189608,2018_Dec_04_1655,None,TimingTask,1,aaylward
1.8,1.2,left,2.3,3.3,4.5,0,0,0,0,0,13,13,12,,,left,1,0.529923664,2018_Dec_04_1655,None,TimingTask,1,aaylward
1.5,2.5,right,2,3,5.5,0,0,0,0,0,14,14,11,,,right,1,0.450687203,2018_Dec_04_1655,None,TimingTask,1,aaylward
3.6,3.2,left,4.1,5.1,8.3,0,0,0,0,0,15,15,19,,,right,0,1.250682879,2018_Dec_04_1655,None,TimingTask,1,aaylward
0.7,1.4,right,1.2,2.2,3.6,0,0,0,0,0,16,16,0,,,right,1,0.30071404,2018_Dec_04_1655,None,TimingTask,1,aaylward
3.2,3.6,right,3.7,4.7,8.3,0,0,0,0,0,17,17,9,,,right,1,0.500554808,2018_Dec_04_1655,None,TimingTask,1,aaylward
3.3,4.4,right,3.8,4.8,9.2,0,0,0,0,0,18,18,3,,,right,1,0.350831103,2018_Dec_04_1655,None,TimingTask,1,aaylward
4.4,3.3,left,4.9,5.9,9.2,0,0,0,0,0,19,19,13,,,right,0,0.000184035,2018_Dec_04_1655,None,TimingTask,1,aaylward
1.8,2.7,right,2.3,3.3,6,0,0,0,0,1,0,20,17,,,left,0,1.434035275,2018_Dec_04_1655,None,TimingTask,1,aaylward
3.3,4.4,right,3.8,4.8,9.2,0,0,0,0,1,1,21,3,,,right,1,0.421502098,2018_Dec_04_1655,None,TimingTask,1,aaylward
1.4,0.7,left,1.9,2.9,3.6,0,0,0,0,1,2,22,10,,,left,1,0.567341435,2018_Dec_04_1655,None,TimingTask,1,aaylward
3.2,3.6,right,3.7,4.7,8.3,0,0,0,0,1,3,23,9,,,right,1,0.467105886,2018_Dec_04_1655,None,TimingTask,1,aaylward
1.5,2.5,right,2,3,5.5,0,0,0,0,1,4,24,11,,,right,1,0.550496654,2018_Dec_04_1655,None,TimingTask,1,aaylward
0.9,1.8,right,1.4,2.4,4.2,0,0,0,0,1,5,25,15,,,right,1,0.596320602,2018_Dec_04_1655,None,TimingTask,1,aaylward
2.1,3.5,right,2.6,3.6,7.1,0,0,0,0,1,6,26,6,,,right,1,0.384001554,2018_Dec_04_1655,None,TimingTask,1,aaylward
3.5,2.1,left,4,5,7.1,0,0,0,0,1,7,27,16,,,left,1,0.984122898,2018_Dec_04_1655,None,TimingTask,1,aaylward
2.5,1.5,left,3,4,5.5,0,0,0,0,1,8,28,1,,,left,1,0.683856289,2018_Dec_04_1655,None,TimingTask,1,aaylward
1.8,1.2,left,2.3,3.3,4.5,0,0,0,0,1,9,29,12,,,left,1,1.213246335,2018_Dec_04_1655,None,TimingTask,1,aaylward
9.9,8.8,left,10.4,11.4,20.2,0,0,0,0,1,10,30,4,,,right,0,0.550578858,2018_Dec_04_1655,None,TimingTask,1,aaylward
2.7,1.8,left,3.2,4.2,6,0,0,0,0,1,11,31,7,,,left,1,0.687918435,2018_Dec_04_1655,None,TimingTask,1,aaylward
0.7,1.4,right,1.2,2.2,3.6,0,0,0,0,1,12,32,0,,,right,1,1.266992336,2018_Dec_04_1655,None,TimingTask,1,aaylward
1.8,0.9,left,2.3,3.3,4.2,0,0,0,0,1,13,33,5,,,left,1,0.813460692,2018_Dec_04_1655,None,TimingTask,1,aaylward
1.2,1.8,right,1.7,2.7,4.5,0,0,0,0,1,14,34,2,,,right,1,0.400625606,2018_Dec_04_1655,None,TimingTask,1,aaylward
2.1,2.8,right,2.6,3.6,6.4,0,0,0,0,1,15,35,18,,,right,1,0.571459332,2018_Dec_04_1655,None,TimingTask,1,aaylward
4.4,3.3,left,4.9,5.9,9.2,0,0,0,0,1,16,36,13,,,right,0,0.321442905,2018_Dec_04_1655,None,TimingTask,1,aaylward
3.6,3.2,left,4.1,5.1,8.3,0,0,0,0,1,17,37,19,,,right,0,0.800565987,2018_Dec_04_1655,None,TimingTask,1,aaylward
8.8,9.9,right,9.3,10.3,20.2,0,0,0,0,1,18,38,14,,,right,1,0.783435909,2018_Dec_04_1655,None,TimingTask,1,aaylward
2.8,2.1,left,3.3,4.3,6.4,0,0,0,0,1,19,39,8,,,left,1,0.717239504,2018_Dec_04_1655,None,TimingTask,1,aaylward
,,,,,,0,0,0,0,,,,,,,,,,2018_Dec_04_1655,None,TimingTask,1,aaylward
1.8,0.9,left,2.3,3.3,4.2,1,0,1,0,0,0,0,5,space,2.229324539,left,1,0.81737123,2018_Dec_04_1655,None,TimingTask,1,aaylward
1.4,0.7,left,1.9,2.9,3.6,1,0,1,0,0,1,1,10,,,left,1,0.929767902,2018_Dec_04_1655,None,TimingTask,1,aaylward
1.8,2.7,right,2.3,3.3,6,1,0,1,0,0,2,2,17,,,right,1,0.746672359,2018_Dec_04_1655,None,TimingTask,1,aaylward
1.5,2.5,right,2,3,5.5,1,0,1,0,0,3,3,11,,,right,1,0.534104992,2018_Dec_04_1655,None,TimingTask,1,aaylward
2.1,3.5,right,2.6,3.6,7.1,1,0,1,0,0,4,4,6,,,right,1,1.196413216,2018_Dec_04_1655,None,TimingTask,1,aaylward
2.5,1.5,left,3,4,5.5,1,0,1,0,0,5,5,1,,,left,1,0.755194021,2018_Dec_04_1655,None,TimingTask,1,aaylward
0.7,1.4,right,1.2,2.2,3.6,1,0,1,0,0,6,6,0,,,right,1,0.63355775,2018_Dec_04_1655,None,TimingTask,1,aaylward
1.2,1.8,right,1.7,2.7,4.5,1,0,1,0,0,7,7,2,,,right,1,0.550746396,2018_Dec_04_1655,None,TimingTask,1,aaylward
3.5,2.1,left,4,5,7.1,1,0,1,0,0,8,8,16,,,left,1,0.768520512,2018_Dec_04_1655,None,TimingTask,1,aaylward
0.9,1.8,right,1.4,2.4,4.2,1,0,1,0,0,9,9,15,,,right,1,0.613232227,2018_Dec_04_1655,None,TimingTask,1,aaylward
3.2,3.6,right,3.7,4.7,8.3,1,0,1,0,0,10,10,9,,,right,1,1.267023625,2018_Dec_04_1655,None,TimingTask,1,aaylward
1.8,1.2,left,2.3,3.3,4.5,1,0,1,0,0,11,11,12,,,left,1,0.896635282,2018_Dec_04_1655,None,TimingTask,1,aaylward
9.9,8.8,left,10.4,11.4,20.2,1,0,1,0,0,12,12,4,,,right,0,0.988445595,2018_Dec_04_1655,None,TimingTask,1,aaylward
3.6,3.2,left,4.1,5.1,8.3,1,0,1,0,0,13,13,19,,,left,1,0.767351447,2018_Dec_04_1655,None,TimingTask,1,aaylward
2.8,2.1,left,3.3,4.3,6.4,1,0,1,0,0,14,14,8,,,left,1,1.029878295,2018_Dec_04_1655,None,TimingTask,1,aaylward
4.4,3.3,left,4.9,5.9,9.2,1,0,1,0,0,15,15,13,,,left,1,0.700743452,2018_Dec_04_1655,None,TimingTask,1,aaylward
3.3,4.4,right,3.8,4.8,9.2,1,0,1,0,0,16,16,3,,,right,1,1.167242334,2018_Dec_04_1655,None,TimingTask,1,aaylward
2.1,2.8,right,2.6,3.6,6.4,1,0,1,0,0,17,17,18,,,right,1,0.416987117,2018_Dec_04_1655,None,TimingTask,1,aaylward
2.7,1.8,left,3.2,4.2,6,1,0,1,0,0,18,18,7,,,left,1,0.750749297,2018_Dec_04_1655,None,TimingTask,1,aaylward
8.8,9.9,right,9.3,10.3,20.2,1,0,1,0,0,19,19,14,,,right,1,0.346258948,2018_Dec_04_1655,None,TimingTask,1,aaylward
8.8,9.9,right,9.3,10.3,20.2,1,0,1,0,1,0,20,14,,,right,1,0.567306732,2018_Dec_04_1655,None,TimingTask,1,aaylward
3.6,3.2,left,4.1,5.1,8.3,1,0,1,0,1,1,21,19,,,left,1,1.599687851,2018_Dec_04_1655,None,TimingTask,1,aaylward
1.4,0.7,left,1.9,2.9,3.6,1,0,1,0,1,2,22,10,,,right,0,0.00017152,2018_Dec_04_1655,None,TimingTask,1,aaylward
4.4,3.3,left,4.9,5.9,9.2,1,0,1,0,1,3,23,13,,,left,1,0.683281996,2018_Dec_04_1655,None,TimingTask,1,aaylward
1.5,2.5,right,2,3,5.5,1,0,1,0,1,4,24,11,,,left,0,0.733913334,2018_Dec_04_1655,None,TimingTask,1,aaylward
3.5,2.1,left,4,5,7.1,1,0,1,0,1,5,25,16,,,left,1,0.733457939,2018_Dec_04_1655,None,TimingTask,1,aaylward
3.3,4.4,right,3.8,4.8,9.2,1,0,1,0,1,6,26,3,,,right,1,0.466737531,2018_Dec_04_1655,None,TimingTask,1,aaylward
2.7,1.8,left,3.2,4.2,6,1,0,1,0,1,7,27,7,,,left,1,0.688191217,2018_Dec_04_1655,None,TimingTask,1,aaylward
1.8,2.7,right,2.3,3.3,6,1,0,1,0,1,8,28,17,,,right,1,0.567181008,2018_Dec_04_1655,None,TimingTask,1,aaylward
1.2,1.8,right,1.7,2.7,4.5,1,0,1,0,1,9,29,2,,,right,1,0.350689166,2018_Dec_04_1655,None,TimingTask,1,aaylward
0.7,1.4,right,1.2,2.2,3.6,1,0,1,0,1,10,30,0,,,right,1,0.50065095,2018_Dec_04_1655,None,TimingTask,1,aaylward
3.2,3.6,right,3.7,4.7,8.3,1,0,1,0,1,11,31,9,,,left,0,1.134034621,2018_Dec_04_1655,None,TimingTask,1,aaylward
2.8,2.1,left,3.3,4.3,6.4,1,0,1,0,1,12,32,8,,,right,0,0.917564965,2018_Dec_04_1655,None,TimingTask,1,aaylward
1.8,1.2,left,2.3,3.3,4.5,1,0,1,0,1,13,33,12,,,left,1,0.833945505,2018_Dec_04_1655,None,TimingTask,1,aaylward
2.1,3.5,right,2.6,3.6,7.1,1,0,1,0,1,14,34,6,,,right,1,0.38012259,2018_Dec_04_1655,None,TimingTask,1,aaylward
2.5,1.5,left,3,4,5.5,1,0,1,0,1,15,35,1,,,left,1,0.63406207,2018_Dec_04_1655,None,TimingTask,1,aaylward
1.8,0.9,left,2.3,3.3,4.2,1,0,1,0,1,16,36,5,,,left,1,0.81742499,2018_Dec_04_1655,None,TimingTask,1,aaylward
9.9,8.8,left,10.4,11.4,20.2,1,0,1,0,1,17,37,4,,,right,0,0.534005152,2018_Dec_04_1655,None,TimingTask,1,aaylward
2.1,2.8,right,2.6,3.6,6.4,1,0,1,0,1,18,38,18,,,left,0,0.904697851,2018_Dec_04_1655,None,TimingTask,1,aaylward
0.9,1.8,right,1.4,2.4,4.2,1,0,1,0,1,19,39,15,,,right,1,0.596110113,2018_Dec_04_1655,None,TimingTask,1,aaylward
,,,,,,1,0,1,0,,,,,,,,,,2018_Dec_04_1655,None,TimingTask,1,aaylward
1.2,1.8,right,1.7,2.7,4.5,0,0,0,0,0,0,0,2,space,2.271635809,right,1,2.15401251,2018_Dec_04_1653,59.96687488,TimingTask,1,aeustace
4.4,3.3,left,4.9,5.9,9.2,0,0,0,0,0,1,1,13,,,left,1,1.18388653,2018_Dec_04_1653,59.96687488,TimingTask,1,aeustace
2.5,1.5,left,3,4,5.5,0,0,0,0,0,2,2,1,,,left,1,1.216773096,2018_Dec_04_1653,59.96687488,TimingTask,1,aeustace
1.8,0.9,left,2.3,3.3,4.2,0,0,0,0,0,3,3,5,,,left,1,0.837645031,2018_Dec_04_1653,59.96687488,TimingTask,1,aeustace
1.8,2.7,right,2.3,3.3,6,0,0,0,0,0,4,4,17,,,right,1,0.484006565,2018_Dec_04_1653,59.96687488,TimingTask,1,aeustace
2.8,2.1,left,3.3,4.3,6.4,0,0,0,0,0,5,5,8,,,right,0,0.617816152,2018_Dec_04_1653,59.96687488,TimingTask,1,aeustace
1.4,0.7,left,1.9,2.9,3.6,0,0,0,0,0,6,6,10,,,left,1,1.467304295,2018_Dec_04_1653,59.96687488,TimingTask,1,aeustace
0.9,1.8,right,1.4,2.4,4.2,0,0,0,0,0,7,7,15,,,right,1,0.479944989,2018_Dec_04_1653,59.96687488,TimingTask,1,aeustace
9.9,8.8,left,10.4,11.4,20.2,0,0,0,0,0,8,8,4,,,left,1,0.43397229,2018_Dec_04_1653,59.96687488,TimingTask,1,aeustace
1.5,2.5,right,2,3,5.5,0,0,0,0,0,9,9,11,,,right,1,0.550915199,2018_Dec_04_1653,59.96687488,TimingTask,1,aeustace
3.3,4.4,right,3.8,4.8,9.2,0,0,0,0,0,10,10,3,,,right,1,0.321621445,2018_Dec_04_1653,59.96687488,TimingTask,1,aeustace
3.2,3.6,right,3.7,4.7,8.3,0,0,0,0,0,11,11,9,,,right,1,0.316950305,2018_Dec_04_1653,59.96687488,TimingTask,1,aeustace
8.8,9.9,right,9.3,10.3,20.2,0,0,0,0,0,12,12,14,,,left,0,0.95069703,2018_Dec_04_1653,59.96687488,TimingTask,1,aeustace
2.1,3.5,right,2.6,3.6,7.1,0,0,0,0,0,13,13,6,,,right,1,0.396793747,2018_Dec_04_1653,59.96687488,TimingTask,1,aeustace
0.7,1.4,right,1.2,2.2,3.6,0,0,0,0,0,14,14,0,,,right,1,0.350838968,2018_Dec_04_1653,59.96687488,TimingTask,1,aeustace
3.5,2.1,left,4,5,7.1,0,0,0,0,0,15,15,16,,,left,1,0.834119347,2018_Dec_04_1653,59.96687488,TimingTask,1,aeustace
2.1,2.8,right,2.6,3.6,6.4,0,0,0,0,0,16,16,18,,,right,1,0.688313048,2018_Dec_04_1653,59.96687488,TimingTask,1,aeustace
2.7,1.8,left,3.2,4.2,6,0,0,0,0,0,17,17,7,,,right,0,0.50497834,2018_Dec_04_1653,59.96687488,TimingTask,1,aeustace
3.6,3.2,left,4.1,5.1,8.3,0,0,0,0,0,18,18,19,,,right,0,0.300147911,2018_Dec_04_1653,59.96687488,TimingTask,1,aeustace
1.8,1.2,left,2.3,3.3,4.5,0,0,0,0,0,19,19,12,,,left,1,0.70083655,2018_Dec_04_1653,59.96687488,TimingTask,1,aeustace
1.5,2.5,right,2,3,5.5,0,0,0,0,1,0,20,11,,,right,1,0.912986008,2018_Dec_04_1653,59.96687488,TimingTask,1,aeustace
2.1,2.8,right,2.6,3.6,6.4,0,0,0,0,1,1,21,18,,,right,1,0.567344686,2018_Dec_04_1653,59.96687488,TimingTask,1,aeustace
1.4,0.7,left,1.9,2.9,3.6,0,0,0,0,1,2,22,10,,,left,1,1.971055259,2018_Dec_04_1653,59.96687488,TimingTask,1,aeustace
2.1,3.5,right,2.6,3.6,7.1,0,0,0,0,1,3,23,6,,,right,1,0.638151057,2018_Dec_04_1653,59.96687488,TimingTask,1,aeustace
0.7,1.4,right,1.2,2.2,3.6,0,0,0,0,1,4,24,0,,,right,1,0.30477354,2018_Dec_04_1653,59.96687488,TimingTask,1,aeustace
2.8,2.1,left,3.3,4.3,6.4,0,0,0,0,1,5,25,8,,,left,1,1.200580266,2018_Dec_04_1653,59.96687488,TimingTask,1,aeustace
3.3,4.4,right,3.8,4.8,9.2,0,0,0,0,1,6,26,3,,,right,1,0.271518903,2018_Dec_04_1653,59.96687488,TimingTask,1,aeustace
1.8,2.7,right,2.3,3.3,6,0,0,0,0,1,7,27,17,,,right,1,0.796514138,2018_Dec_04_1653,59.96687488,TimingTask,1,aeustace
1.8,1.2,left,2.3,3.3,4.5,0,0,0,0,1,8,28,12,,,left,1,0.863287946,2018_Dec_04_1653,59.96687488,TimingTask,1,aeustace
4.4,3.3,left,4.9,5.9,9.2,0,0,0,0,1,9,29,13,,,left,1,0.784324289,2018_Dec_04_1653,59.96687488,TimingTask,1,aeustace
2.5,1.5,left,3,4,5.5,0,0,0,0,1,10,30,1,,,left,1,0.713466434,2018_Dec_04_1653,59.96687488,TimingTask,1,aeustace
0.9,1.8,right,1.4,2.4,4.2,0,0,0,0,1,11,31,15,,,right,1,0.217397166,2018_Dec_04_1653,59.96687488,TimingTask,1,aeustace
3.2,3.6,right,3.7,4.7,8.3,0,0,0,0,1,12,32,9,,,left,0,0.913052853,2018_Dec_04_1653,59.96687488,TimingTask,1,aeustace
1.2,1.8,right,1.7,2.7,4.5,0,0,0,0,1,13,33,2,,,right,1,0.800676977,2018_Dec_04_1653,59.96687488,TimingTask,1,aeustace
9.9,8.8,left,10.4,11.4,20.2,0,0,0,0,1,14,34,4,,,left,1,0.683897623,2018_Dec_04_1653,59.96687488,TimingTask,1,aeustace
2.7,1.8,left,3.2,4.2,6,0,0,0,0,1,15,35,7,,,left,1,0.883855241,2018_Dec_04_1653,59.96687488,TimingTask,1,aeustace
3.6,3.2,left,4.1,5.1,8.3,0,0,0,0,1,16,36,19,,,left,1,0.967175727,2018_Dec_04_1653,59.96687488,TimingTask,1,aeustace
8.8,9.9,right,9.3,10.3,20.2,0,0,0,0,1,17,37,14,,,right,1,0.000178062,2018_Dec_04_1653,59.96687488,TimingTask,1,aeustace
1.8,0.9,left,2.3,3.3,4.2,0,0,0,0,1,18,38,5,,,left,1,0.000180622,2018_Dec_04_1653,59.96687488,TimingTask,1,aeustace
3.5,2.1,left,4,5,7.1,0,0,0,0,1,19,39,16,,,left,1,0.000182613,2018_Dec_04_1653,59.96687488,TimingTask,1,aeustace
,,,,,,0,0,0,0,,,,,,,,,,2018_Dec_04_1653,59.96687488,TimingTask,1,aeustace
1.2,1.8,right,1.7,2.7,4.5,1,0,1,0,0,0,0,2,space,1.267610357,right,1,0.384088769,2018_Dec_04_1653,59.96687488,TimingTask,1,aeustace
9.9,8.8,left,10.4,11.4,20.2,1,0,1,0,0,1,1,4,,,right,0,0.834007276,2018_Dec_04_1653,59.96687488,TimingTask,1,aeustace
3.5,2.1,left,4,5,7.1,1,0,1,0,0,2,2,16,,,left,1,0.767305149,2018_Dec_04_1653,59.96687488,TimingTask,1,aeustace
3.2,3.6,right,3.7,4.7,8.3,1,0,1,0,0,3,3,9,,,right,1,0.000843377,2018_Dec_04_1653,59.96687488,TimingTask,1,aeustace
2.1,3.5,right,2.6,3.6,7.1,1,0,1,0,0,4,4,6,,,right,1,0.417355638,2018_Dec_04_1653,59.96687488,TimingTask,1,aeustace
2.7,1.8,left,3.2,4.2,6,1,0,1,0,0,5,5,7,,,left,1,0.679696669,2018_Dec_04_1653,59.96687488,TimingTask,1,aeustace
1.8,2.7,right,2.3,3.3,6,1,0,1,0,0,6,6,17,,,right,1,0.588014666,2018_Dec_04_1653,59.96687488,TimingTask,1,aeustace
3.3,4.4,right,3.8,4.8,9.2,1,0,1,0,0,7,7,3,,,right,1,0.500594204,2018_Dec_04_1653,59.96687488,TimingTask,1,aeustace
1.5,2.5,right,2,3,5.5,1,0,1,0,0,8,8,11,,,right,1,0.771375259,2018_Dec_04_1653,59.96687488,TimingTask,1,aeustace
1.8,1.2,left,2.3,3.3,4.5,1,0,1,0,0,9,9,12,,,left,1,1.238033581,2018_Dec_04_1653,59.96687488,TimingTask,1,aeustace
0.9,1.8,right,1.4,2.4,4.2,1,0,1,0,0,10,10,15,,,right,1,0.267529291,2018_Dec_04_1653,59.96687488,TimingTask,1,aeustace
1.4,0.7,left,1.9,2.9,3.6,1,0,1,0,0,11,11,10,,,left,1,1.204046216,2018_Dec_04_1653,59.96687488,TimingTask,1,aeustace
1.8,0.9,left,2.3,3.3,4.2,1,0,1,0,0,12,12,5,,,left,1,0.937957635,2018_Dec_04_1653,59.96687488,TimingTask,1,aeustace
2.1,2.8,right,2.6,3.6,6.4,1,0,1,0,0,13,13,18,,,right,1,0.271371561,2018_Dec_04_1653,59.96687488,TimingTask,1,aeustace
4.4,3.3,left,4.9,5.9,9.2,1,0,1,0,0,14,14,13,,,left,1,0.971403134,2018_Dec_04_1653,59.96687488,TimingTask,1,aeustace
2.5,1.5,left,3,4,5.5,1,0,1,0,0,15,15,1,,,left,1,2.029678038,2018_Dec_04_1653,59.96687488,TimingTask,1,aeustace
3.6,3.2,left,4.1,5.1,8.3,1,0,1,0,0,16,16,19,,,left,1,0.000197973,2018_Dec_04_1653,59.96687488,TimingTask,1,aeustace
0.7,1.4,right,1.2,2.2,3.6,1,0,1,0,0,17,17,0,,,left,0,0.683862067,2018_Dec_04_1653,59.96687488,TimingTask,1,aeustace
2.8,2.1,left,3.3,4.3,6.4,1,0,1,0,0,18,18,8,,,left,1,0.800740692,2018_Dec_04_1653,59.96687488,TimingTask,1,aeustace
8.8,9.9,right,9.3,10.3,20.2,1,0,1,0,0,19,19,14,,,right,1,0.333624699,2018_Dec_04_1653,59.96687488,TimingTask,1,aeustace
1.8,0.9,left,2.3,3.3,4.2,1,0,1,0,1,0,20,5,,,left,1,1.600615253,2018_Dec_04_1653,59.96687488,TimingTask,1,aeustace
1.8,2.7,right,2.3,3.3,6,1,0,1,0,1,1,21,17,,,left,0,0.871499276,2018_Dec_04_1653,59.96687488,TimingTask,1,aeustace
0.9,1.8,right,1.4,2.4,4.2,1,0,1,0,1,2,22,15,,,right,1,0.446543863,2018_Dec_04_1653,59.96687488,TimingTask,1,aeustace
3.5,2.1,left,4,5,7.1,1,0,1,0,1,3,23,16,,,left,1,0.784225871,2018_Dec_04_1653,59.96687488,TimingTask,1,aeustace
2.1,3.5,right,2.6,3.6,7.1,1,0,1,0,1,4,24,6,,,right,1,0.367367726,2018_Dec_04_1653,59.96687488,TimingTask,1,aeustace
9.9,8.8,left,10.4,11.4,20.2,1,0,1,0,1,5,25,4,,,right,0,0.000185173,2018_Dec_04_1653,59.96687488,TimingTask,1,aeustace
3.3,4.4,right,3.8,4.8,9.2,1,0,1,0,1,6,26,3,,,right,1,0.000167253,2018_Dec_04_1653,59.96687488,TimingTask,1,aeustace
2.8,2.1,left,3.3,4.3,6.4,1,0,1,0,1,7,27,8,,,left,1,0.000168391,2018_Dec_04_1653,59.96687488,TimingTask,1,aeustace
1.2,1.8,right,1.7,2.7,4.5,1,0,1,0,1,8,28,2,,,left,0,0.000174364,2018_Dec_04_1653,59.96687488,TimingTask,1,aeustace
3.6,3.2,left,4.1,5.1,8.3,1,0,1,0,1,9,29,19,,,right,0,7.62E-05,2018_Dec_04_1653,59.96687488,TimingTask,1,aeustace
1.4,0.7,left,1.9,2.9,3.6,1,0,1,0,1,10,30,10,,,right,0,0.000187449,2018_Dec_04_1653,59.96687488,TimingTask,1,aeustace
2.7,1.8,left,3.2,4.2,6,1,0,1,0,1,11,31,7,,,right,0,0.000193706,2018_Dec_04_1653,59.96687488,TimingTask,1,aeustace
4.4,3.3,left,4.9,5.9,9.2,1,0,1,0,1,12,32,13,,,left,1,0.000178062,2018_Dec_04_1653,59.96687488,TimingTask,1,aeustace
1.5,2.5,right,2,3,5.5,1,0,1,0,1,13,33,11,,,right,1,0.000179484,2018_Dec_04_1653,59.96687488,TimingTask,1,aeustace
8.8,9.9,right,9.3,10.3,20.2,1,0,1,0,1,14,34,14,,,left,0,0.721282956,2018_Dec_04_1653,59.96687488,TimingTask,1,aeustace
2.1,2.8,right,2.6,3.6,6.4,1,0,1,0,1,15,35,18,,,right,1,0.450618808,2018_Dec_04_1653,59.96687488,TimingTask,1,aeustace
2.5,1.5,left,3,4,5.5,1,0,1,0,1,16,36,1,,,left,1,0.916520225,2018_Dec_04_1653,59.96687488,TimingTask,1,aeustace
1.8,1.2,left,2.3,3.3,4.5,1,0,1,0,1,17,37,12,,,right,0,0.000177493,2018_Dec_04_1653,59.96687488,TimingTask,1,aeustace
0.7,1.4,right,1.2,2.2,3.6,1,0,1,0,1,18,38,0,,,left,0,0.688116212,2018_Dec_04_1653,59.96687488,TimingTask,1,aeustace
3.2,3.6,right,3.7,4.7,8.3,1,0,1,0,1,19,39,9,,,left,0,0.000218737,2018_Dec_04_1653,59.96687488,TimingTask,1,aeustace
,,,,,,1,0,1,0,,,,,,,,,,2018_Dec_04_1653,59.96687488,TimingTask,1,aeustace
9.9,8.8,left,10.4,11.4,20.2,0,0,0,0,0,0,0,4,space,1.417515567,right,0,0.717224552,2018_Dec_04_1655,None,TimingTask,1,amaugust
8.8,9.9,right,9.3,10.3,20.2,0,0,0,0,0,1,1,14,,,right,1,0.538069312,2018_Dec_04_1655,None,TimingTask,1,amaugust
0.7,1.4,right,1.2,2.2,3.6,0,0,0,0,0,2,2,0,,,right,1,0.433796304,2018_Dec_04_1655,None,TimingTask,1,amaugust
3.2,3.6,right,3.7,4.7,8.3,0,0,0,0,0,3,3,9,,,right,1,0.679149978,2018_Dec_04_1655,None,TimingTask,1,amaugust
2.1,2.8,right,2.6,3.6,6.4,0,0,0,0,0,4,4,18,,,left,0,1.013006499,2018_Dec_04_1655,None,TimingTask,1,amaugust
3.5,2.1,left,4,5,7.1,0,0,0,0,0,5,5,16,,,left,1,0.951016988,2018_Dec_04_1655,None,TimingTask,1,amaugust
0.9,1.8,right,1.4,2.4,4.2,0,0,0,0,0,6,6,15,,,right,1,0.646532468,2018_Dec_04_1655,None,TimingTask,1,amaugust
1.8,2.7,right,2.3,3.3,6,0,0,0,0,0,7,7,17,,,right,1,0.484045947,2018_Dec_04_1655,None,TimingTask,1,amaugust
1.2,1.8,right,1.7,2.7,4.5,0,0,0,0,0,8,8,2,,,right,1,0.583994832,2018_Dec_04_1655,None,TimingTask,1,amaugust
1.4,0.7,left,1.9,2.9,3.6,0,0,0,0,0,9,9,10,,,left,1,0.70061329,2018_Dec_04_1655,None,TimingTask,1,amaugust
2.1,3.5,right,2.6,3.6,7.1,0,0,0,0,0,10,10,6,,,right,1,0.55077942,2018_Dec_04_1655,None,TimingTask,1,amaugust
2.5,1.5,left,3,4,5.5,0,0,0,0,0,11,11,1,,,left,1,0.900641621,2018_Dec_04_1655,None,TimingTask,1,amaugust
1.8,1.2,left,2.3,3.3,4.5,0,0,0,0,0,12,12,12,,,left,1,0.784026861,2018_Dec_04_1655,None,TimingTask,1,amaugust
1.5,2.5,right,2,3,5.5,0,0,0,0,0,13,13,11,,,right,1,0.500645262,2018_Dec_04_1655,None,TimingTask,1,amaugust
2.7,1.8,left,3.2,4.2,6,0,0,0,0,0,14,14,7,,,left,1,0.796277876,2018_Dec_04_1655,None,TimingTask,1,amaugust
4.4,3.3,left,4.9,5.9,9.2,0,0,0,0,0,15,15,13,,,left,1,0.913134698,2018_Dec_04_1655,None,TimingTask,1,amaugust
1.8,0.9,left,2.3,3.3,4.2,0,0,0,0,0,16,16,5,,,left,1,0.86311318,2018_Dec_04_1655,None,TimingTask,1,amaugust
2.8,2.1,left,3.3,4.3,6.4,0,0,0,0,0,17,17,8,,,left,1,0.72923891,2018_Dec_04_1655,None,TimingTask,1,amaugust
3.6,3.2,left,4.1,5.1,8.3,0,0,0,0,0,18,18,19,,,left,1,1.067291268,2018_Dec_04_1655,None,TimingTask,1,amaugust
3.3,4.4,right,3.8,4.8,9.2,0,0,0,0,0,19,19,3,,,right,1,0.484018356,2018_Dec_04_1655,None,TimingTask,1,amaugust
2.8,2.1,left,3.3,4.3,6.4,0,0,0,0,1,0,20,8,,,right,0,0.784274896,2018_Dec_04_1655,None,TimingTask,1,amaugust
1.8,2.7,right,2.3,3.3,6,0,0,0,0,1,1,21,17,,,left,0,0.800648078,2018_Dec_04_1655,None,TimingTask,1,amaugust
2.1,3.5,right,2.6,3.6,7.1,0,0,0,0,1,2,22,6,,,right,1,0.413118627,2018_Dec_04_1655,None,TimingTask,1,amaugust
1.5,2.5,right,2,3,5.5,0,0,0,0,1,3,23,11,,,right,1,1.15049179,2018_Dec_04_1655,None,TimingTask,1,amaugust
8.8,9.9,right,9.3,10.3,20.2,0,0,0,0,1,4,24,14,,,right,1,0.913169116,2018_Dec_04_1655,None,TimingTask,1,amaugust
3.5,2.1,left,4,5,7.1,0,0,0,0,1,5,25,16,,,right,0,0.563541866,2018_Dec_04_1655,None,TimingTask,1,amaugust
2.1,2.8,right,2.6,3.6,6.4,0,0,0,0,1,6,26,18,,,right,1,0.534001758,2018_Dec_04_1655,None,TimingTask,1,amaugust
1.8,1.2,left,2.3,3.3,4.5,0,0,0,0,1,7,27,12,,,left,1,0.846569047,2018_Dec_04_1655,None,TimingTask,1,amaugust
0.9,1.8,right,1.4,2.4,4.2,0,0,0,0,1,8,28,15,,,left,0,0.717377299,2018_Dec_04_1655,None,TimingTask,1,amaugust
1.8,0.9,left,2.3,3.3,4.2,0,0,0,0,1,9,29,5,,,left,1,0.784506718,2018_Dec_04_1655,None,TimingTask,1,amaugust
1.2,1.8,right,1.7,2.7,4.5,0,0,0,0,1,10,30,2,,,right,1,0.533985545,2018_Dec_04_1655,None,TimingTask,1,amaugust
0.7,1.4,right,1.2,2.2,3.6,0,0,0,0,1,11,31,0,,,right,1,0.517451368,2018_Dec_04_1655,None,TimingTask,1,amaugust
3.6,3.2,left,4.1,5.1,8.3,0,0,0,0,1,12,32,19,,,left,1,0.763260437,2018_Dec_04_1655,None,TimingTask,1,amaugust
4.4,3.3,left,4.9,5.9,9.2,0,0,0,0,1,13,33,13,,,left,1,0.913291712,2018_Dec_04_1655,None,TimingTask,1,amaugust
9.9,8.8,left,10.4,11.4,20.2,0,0,0,0,1,14,34,4,,,left,1,1.038254627,2018_Dec_04_1655,None,TimingTask,1,amaugust
2.7,1.8,left,3.2,4.2,6,0,0,0,0,1,15,35,7,,,right,0,0.879795553,2018_Dec_04_1655,None,TimingTask,1,amaugust
1.4,0.7,left,1.9,2.9,3.6,0,0,0,0,1,16,36,10,,,left,1,1.183888393,2018_Dec_04_1655,None,TimingTask,1,amaugust
2.5,1.5,left,3,4,5.5,0,0,0,0,1,17,37,1,,,left,1,0.916796634,2018_Dec_04_1655,None,TimingTask,1,amaugust
3.2,3.6,right,3.7,4.7,8.3,0,0,0,0,1,18,38,9,,,right,1,0.36721188,2018_Dec_04_1655,None,TimingTask,1,amaugust
3.3,4.4,right,3.8,4.8,9.2,0,0,0,0,1,19,39,3,,,right,1,0.400542492,2018_Dec_04_1655,None,TimingTask,1,amaugust
,,,,,,0,0,0,0,,,,,,,,,,2018_Dec_04_1655,None,TimingTask,1,amaugust
3.6,3.2,left,4.1,5.1,8.3,1,0,1,0,0,0,0,19,space,9.816845758,right,0,0.400766065,2018_Dec_04_1655,None,TimingTask,1,amaugust
3.2,3.6,right,3.7,4.7,8.3,1,0,1,0,0,1,1,9,,,right,1,0.450786161,2018_Dec_04_1655,None,TimingTask,1,amaugust
1.8,2.7,right,2.3,3.3,6,1,0,1,0,0,2,2,17,,,left,0,0.804783613,2018_Dec_04_1655,None,TimingTask,1,amaugust
2.5,1.5,left,3,4,5.5,1,0,1,0,0,3,3,1,,,right,0,0.817481775,2018_Dec_04_1655,None,TimingTask,1,amaugust
1.4,0.7,left,1.9,2.9,3.6,1,0,1,0,0,4,4,10,,,right,0,1.179866067,2018_Dec_04_1655,None,TimingTask,1,amaugust
1.5,2.5,right,2,3,5.5,1,0,1,0,0,5,5,11,,,right,1,0.366840965,2018_Dec_04_1655,None,TimingTask,1,amaugust
3.3,4.4,right,3.8,4.8,9.2,1,0,1,0,0,6,6,3,,,right,1,0.567225704,2018_Dec_04_1655,None,TimingTask,1,amaugust
3.5,2.1,left,4,5,7.1,1,0,1,0,0,7,7,16,,,left,1,0.617449178,2018_Dec_04_1655,None,TimingTask,1,amaugust
2.8,2.1,left,3.3,4.3,6.4,1,0,1,0,0,8,8,8,,,left,1,1.217353547,2018_Dec_04_1655,None,TimingTask,1,amaugust
1.8,0.9,left,2.3,3.3,4.2,1,0,1,0,0,9,9,5,,,left,1,1.563633742,2018_Dec_04_1655,None,TimingTask,1,amaugust
1.8,1.2,left,2.3,3.3,4.5,1,0,1,0,0,10,10,12,,,left,1,0.834223596,2018_Dec_04_1655,None,TimingTask,1,amaugust
0.9,1.8,right,1.4,2.4,4.2,1,0,1,0,0,11,11,15,,,right,1,0.484101413,2018_Dec_04_1655,None,TimingTask,1,amaugust
0.7,1.4,right,1.2,2.2,3.6,1,0,1,0,0,12,12,0,,,right,1,0.449993131,2018_Dec_04_1655,None,TimingTask,1,amaugust
9.9,8.8,left,10.4,11.4,20.2,1,0,1,0,0,13,13,4,,,left,1,0.912769187,2018_Dec_04_1655,None,TimingTask,1,amaugust
8.8,9.9,right,9.3,10.3,20.2,1,0,1,0,0,14,14,14,,,right,1,0.987915954,2018_Dec_04_1655,None,TimingTask,1,amaugust
2.7,1.8,left,3.2,4.2,6,1,0,1,0,0,15,15,7,,,left,1,1.200649557,2018_Dec_04_1655,None,TimingTask,1,amaugust
1.2,1.8,right,1.7,2.7,4.5,1,0,1,0,0,16,16,2,,,right,1,1.229350554,2018_Dec_04_1655,None,TimingTask,1,amaugust
4.4,3.3,left,4.9,5.9,9.2,1,0,1,0,0,17,17,13,,,left,1,0.750624284,2018_Dec_04_1655,None,TimingTask,1,amaugust
2.1,2.8,right,2.6,3.6,6.4,1,0,1,0,0,18,18,18,,,right,1,0.566613864,2018_Dec_04_1655,None,TimingTask,1,amaugust
2.1,3.5,right,2.6,3.6,7.1,1,0,1,0,0,19,19,6,,,right,1,0.613242247,2018_Dec_04_1655,None,TimingTask,1,amaugust
3.6,3.2,left,4.1,5.1,8.3,1,0,1,0,1,0,20,19,,,right,0,0.550553287,2018_Dec_04_1655,None,TimingTask,1,amaugust
1.5,2.5,right,2,3,5.5,1,0,1,0,1,1,21,11,,,right,1,1.313078151,2018_Dec_04_1655,None,TimingTask,1,amaugust
1.2,1.8,right,1.7,2.7,4.5,1,0,1,0,1,2,22,2,,,right,1,1.08398445,2018_Dec_04_1655,None,TimingTask,1,amaugust
2.1,3.5,right,2.6,3.6,7.1,1,0,1,0,1,3,23,6,,,right,1,0.538024654,2018_Dec_04_1655,None,TimingTask,1,amaugust
2.8,2.1,left,3.3,4.3,6.4,1,0,1,0,1,4,24,8,,,left,1,0.967420321,2018_Dec_04_1655,None,TimingTask,1,amaugust
2.5,1.5,left,3,4,5.5,1,0,1,0,1,5,25,1,,,left,1,0.8668906,2018_Dec_04_1655,None,TimingTask,1,amaugust
0.7,1.4,right,1.2,2.2,3.6,1,0,1,0,1,6,26,0,,,right,1,1.033929652,2018_Dec_04_1655,None,TimingTask,1,amaugust
2.7,1.8,left,3.2,4.2,6,1,0,1,0,1,7,27,7,,,right,0,1.034241403,2018_Dec_04_1655,None,TimingTask,1,amaugust
1.4,0.7,left,1.9,2.9,3.6,1,0,1,0,1,8,28,10,,,left,1,0.600868636,2018_Dec_04_1655,None,TimingTask,1,amaugust
3.2,3.6,right,3.7,4.7,8.3,1,0,1,0,1,9,29,9,,,left,0,0.984450569,2018_Dec_04_1655,None,TimingTask,1,amaugust
1.8,2.7,right,2.3,3.3,6,1,0,1,0,1,10,30,17,,,right,1,1.350471481,2018_Dec_04_1655,None,TimingTask,1,amaugust
4.4,3.3,left,4.9,5.9,9.2,1,0,1,0,1,11,31,13,,,right,0,0.879721313,2018_Dec_04_1655,None,TimingTask,1,amaugust
1.8,1.2,left,2.3,3.3,4.5,1,0,1,0,1,12,32,12,,,right,0,1.400578332,2018_Dec_04_1655,None,TimingTask,1,amaugust
8.8,9.9,right,9.3,10.3,20.2,1,0,1,0,1,13,33,14,,,right,1,0.230035211,2018_Dec_04_1655,None,TimingTask,1,amaugust
1.8,0.9,left,2.3,3.3,4.2,1,0,1,0,1,14,34,5,,,left,1,1.370805265,2018_Dec_04_1655,None,TimingTask,1,amaugust
9.9,8.8,left,10.4,11.4,20.2,1,0,1,0,1,15,35,4,,,right,0,0.500686791,2018_Dec_04_1655,None,TimingTask,1,amaugust
2.1,2.8,right,2.6,3.6,6.4,1,0,1,0,1,16,36,18,,,right,1,0.500382151,2018_Dec_04_1655,None,TimingTask,1,amaugust
0.9,1.8,right,1.4,2.4,4.2,1,0,1,0,1,17,37,15,,,right,1,0.384211408,2018_Dec_04_1655,None,TimingTask,1,amaugust
3.3,4.4,right,3.8,4.8,9.2,1,0,1,0,1,18,38,3,,,right,1,1.284011927,2018_Dec_04_1655,None,TimingTask,1,amaugust
3.5,2.1,left,4,5,7.1,1,0,1,0,1,19,39,16,,,left,1,0.900551168,2018_Dec_04_1655,None,TimingTask,1,amaugust
,,,,,,1,0,1,0,,,,,,,,,,2018_Dec_04_1655,None,TimingTask,1,amaugust
1.5,2.5,right,2,3,5.5,0,0,0,0,0,0,0,11,space,1.654038416,right,1,0.000191431,2018_Dec_04_1650,59.96564753,TimingTask,1,bevacqua
3.5,2.1,left,4,5,7.1,0,0,0,0,0,1,1,16,,,right,0,0.000193422,2018_Dec_04_1650,59.96564753,TimingTask,1,bevacqua
2.1,3.5,right,2.6,3.6,7.1,0,0,0,0,0,2,2,6,,,right,1,7.11E-05,2018_Dec_04_1650,59.96564753,TimingTask,1,bevacqua
0.7,1.4,right,1.2,2.2,3.6,0,0,0,0,0,3,3,0,,,right,1,0.000205084,2018_Dec_04_1650,59.96564753,TimingTask,1,bevacqua
1.8,1.2,left,2.3,3.3,4.5,0,0,0,0,0,4,4,12,,,left,1,0.000192284,2018_Dec_04_1650,59.96564753,TimingTask,1,bevacqua
9.9,8.8,left,10.4,11.4,20.2,0,0,0,0,0,5,5,4,,,left,1,0.000205084,2018_Dec_04_1650,59.96564753,TimingTask,1,bevacqua
0.9,1.8,right,1.4,2.4,4.2,0,0,0,0,0,6,6,15,,,right,1,0.00010752,2018_Dec_04_1650,59.96564753,TimingTask,1,bevacqua
1.2,1.8,right,1.7,2.7,4.5,0,0,0,0,0,7,7,2,,,right,1,0.000216177,2018_Dec_04_1650,59.96564753,TimingTask,1,bevacqua
2.1,2.8,right,2.6,3.6,6.4,0,0,0,0,0,8,8,18,,,right,1,0.000191146,2018_Dec_04_1650,59.96564753,TimingTask,1,bevacqua
1.8,0.9,left,2.3,3.3,4.2,0,0,0,0,0,9,9,5,,,right,0,0.000191146,2018_Dec_04_1650,59.96564753,TimingTask,1,bevacqua
2.7,1.8,left,3.2,4.2,6,0,0,0,0,0,10,10,7,,,left,1,0.000191431,2018_Dec_04_1650,59.96564753,TimingTask,1,bevacqua
3.6,3.2,left,4.1,5.1,8.3,0,0,0,0,0,11,11,19,,,left,1,0.000196266,2018_Dec_04_1650,59.96564753,TimingTask,1,bevacqua
1.4,0.7,left,1.9,2.9,3.6,0,0,0,0,0,12,12,10,,,left,1,0.000194559,2018_Dec_04_1650,59.96564753,TimingTask,1,bevacqua
4.4,3.3,left,4.9,5.9,9.2,0,0,0,0,0,13,13,13,,,right,0,0.000193422,2018_Dec_04_1650,59.96564753,TimingTask,1,bevacqua
3.3,4.4,right,3.8,4.8,9.2,0,0,0,0,0,14,14,3,,,right,1,0.000199679,2018_Dec_04_1650,59.96564753,TimingTask,1,bevacqua
3.2,3.6,right,3.7,4.7,8.3,0,0,0,0,0,15,15,9,,,right,1,0.000191715,2018_Dec_04_1650,59.96564753,TimingTask,1,bevacqua
8.8,9.9,right,9.3,10.3,20.2,0,0,0,0,0,16,16,14,,,right,1,0.000191146,2018_Dec_04_1650,59.96564753,TimingTask,1,bevacqua
1.8,2.7,right,2.3,3.3,6,0,0,0,0,0,17,17,17,,,left,0,0.000187448,2018_Dec_04_1650,59.96564753,TimingTask,1,bevacqua
2.8,2.1,left,3.3,4.3,6.4,0,0,0,0,0,18,18,8,,,left,1,0.000100409,2018_Dec_04_1650,59.96564753,TimingTask,1,bevacqua
2.5,1.5,left,3,4,5.5,0,0,0,0,0,19,19,1,,,left,1,0.000195697,2018_Dec_04_1650,59.96564753,TimingTask,1,bevacqua
2.1,2.8,right,2.6,3.6,6.4,0,0,0,0,1,0,20,18,,,right,1,0.000193422,2018_Dec_04_1650,59.96564753,TimingTask,1,bevacqua
1.8,1.2,left,2.3,3.3,4.5,0,0,0,0,1,1,21,12,,,right,0,0.000186879,2018_Dec_04_1650,59.96564753,TimingTask,1,bevacqua
8.8,9.9,right,9.3,10.3,20.2,0,0,0,0,1,2,22,14,,,left,0,0.000190577,2018_Dec_04_1650,59.96564753,TimingTask,1,bevacqua
9.9,8.8,left,10.4,11.4,20.2,0,0,0,0,1,3,23,4,,,right,0,0.000202524,2018_Dec_04_1650,59.96564753,TimingTask,1,bevacqua
2.7,1.8,left,3.2,4.2,6,0,0,0,0,1,4,24,7,,,right,0,0.000194559,2018_Dec_04_1650,59.96564753,TimingTask,1,bevacqua
0.7,1.4,right,1.2,2.2,3.6,0,0,0,0,1,5,25,0,,,left,0,0.000190862,2018_Dec_04_1650,59.96564753,TimingTask,1,bevacqua
2.5,1.5,left,3,4,5.5,0,0,0,0,1,6,26,1,,,right,0,0.000198826,2018_Dec_04_1650,59.96564753,TimingTask,1,bevacqua
3.2,3.6,right,3.7,4.7,8.3,0,0,0,0,1,7,27,9,,,right,1,0.000191715,2018_Dec_04_1650,59.96564753,TimingTask,1,bevacqua
1.8,2.7,right,2.3,3.3,6,0,0,0,0,1,8,28,17,,,right,1,0.000188871,2018_Dec_04_1650,59.96564753,TimingTask,1,bevacqua
1.5,2.5,right,2,3,5.5,0,0,0,0,1,9,29,11,,,right,1,0.000197688,2018_Dec_04_1650,59.96564753,TimingTask,1,bevacqua
2.1,3.5,right,2.6,3.6,7.1,0,0,0,0,1,10,30,6,,,right,1,0.000198542,2018_Dec_04_1650,59.96564753,TimingTask,1,bevacqua
1.2,1.8,right,1.7,2.7,4.5,0,0,0,0,1,11,31,2,,,right,1,6.86E-05,2018_Dec_04_1650,59.96564753,TimingTask,1,bevacqua
1.8,0.9,left,2.3,3.3,4.2,0,0,0,0,1,12,32,5,,,right,0,0.000190008,2018_Dec_04_1650,59.96564753,TimingTask,1,bevacqua
3.3,4.4,right,3.8,4.8,9.2,0,0,0,0,1,13,33,3,,,left,0,0.000192284,2018_Dec_04_1650,59.96564753,TimingTask,1,bevacqua
3.5,2.1,left,4,5,7.1,0,0,0,0,1,14,34,16,,,right,0,6.06E-05,2018_Dec_04_1650,59.96564753,TimingTask,1,bevacqua
1.4,0.7,left,1.9,2.9,3.6,0,0,0,0,1,15,35,10,,,left,1,0.000146773,2018_Dec_04_1650,59.96564753,TimingTask,1,bevacqua
0.9,1.8,right,1.4,2.4,4.2,0,0,0,0,1,16,36,15,,,left,0,0.000191146,2018_Dec_04_1650,59.96564753,TimingTask,1,bevacqua
3.6,3.2,left,4.1,5.1,8.3,0,0,0,0,1,17,37,19,,,right,0,6.12E-05,2018_Dec_04_1650,59.96564753,TimingTask,1,bevacqua
4.4,3.3,left,4.9,5.9,9.2,0,0,0,0,1,18,38,13,,,left,1,0.000193422,2018_Dec_04_1650,59.96564753,TimingTask,1,bevacqua
2.8,2.1,left,3.3,4.3,6.4,0,0,0,0,1,19,39,8,,,right,0,0.00015616,2018_Dec_04_1650,59.96564753,TimingTask,1,bevacqua
,,,,,,0,0,0,0,,,,,,,,,,2018_Dec_04_1650,59.96564753,TimingTask,1,bevacqua
3.5,2.1,left,4,5,7.1,1,0,1,0,0,0,0,16,space,1.438386682,right,0,0.000205653,2018_Dec_04_1650,59.96564753,TimingTask,1,bevacqua
0.7,1.4,right,1.2,2.2,3.6,1,0,1,0,0,1,1,0,,,left,0,0.000196266,2018_Dec_04_1650,59.96564753,TimingTask,1,bevacqua
1.5,2.5,right,2,3,5.5,1,0,1,0,0,2,2,11,,,right,1,0.000195982,2018_Dec_04_1650,59.96564753,TimingTask,1,bevacqua
2.5,1.5,left,3,4,5.5,1,0,1,0,0,3,3,1,,,right,0,0.000188302,2018_Dec_04_1650,59.96564753,TimingTask,1,bevacqua
3.2,3.6,right,3.7,4.7,8.3,1,0,1,0,0,4,4,9,,,left,0,0.000197688,2018_Dec_04_1650,59.96564753,TimingTask,1,bevacqua
1.8,2.7,right,2.3,3.3,6,1,0,1,0,0,5,5,17,,,right,1,0.000190862,2018_Dec_04_1650,59.96564753,TimingTask,1,bevacqua
9.9,8.8,left,10.4,11.4,20.2,1,0,1,0,0,6,6,4,,,left,1,0.000192284,2018_Dec_04_1650,59.96564753,TimingTask,1,bevacqua
2.1,3.5,right,2.6,3.6,7.1,1,0,1,0,0,7,7,6,,,left,0,0.000193706,2018_Dec_04_1650,59.96564753,TimingTask,1,bevacqua
3.3,4.4,right,3.8,4.8,9.2,1,0,1,0,0,8,8,3,,,right,1,0.000221297,2018_Dec_04_1650,59.96564753,TimingTask,1,bevacqua
3.6,3.2,left,4.1,5.1,8.3,1,0,1,0,0,9,9,19,,,left,1,0.00022983,2018_Dec_04_1650,59.96564753,TimingTask,1,bevacqua
2.7,1.8,left,3.2,4.2,6,1,0,1,0,0,10,10,7,,,left,1,7.71E-05,2018_Dec_04_1650,59.96564753,TimingTask,1,bevacqua
8.8,9.9,right,9.3,10.3,20.2,1,0,1,0,0,11,11,14,,,left,0,0.000202808,2018_Dec_04_1650,59.96564753,TimingTask,1,bevacqua
1.4,0.7,left,1.9,2.9,3.6,1,0,1,0,0,12,12,10,,,right,0,0.000191715,2018_Dec_04_1650,59.96564753,TimingTask,1,bevacqua
1.2,1.8,right,1.7,2.7,4.5,1,0,1,0,0,13,13,2,,,right,1,0.000198257,2018_Dec_04_1650,59.96564753,TimingTask,1,bevacqua
2.1,2.8,right,2.6,3.6,6.4,1,0,1,0,0,14,14,18,,,right,1,0.000190293,2018_Dec_04_1650,59.96564753,TimingTask,1,bevacqua
4.4,3.3,left,4.9,5.9,9.2,1,0,1,0,0,15,15,13,,,right,0,0.000198826,2018_Dec_04_1650,59.96564753,TimingTask,1,bevacqua
1.8,0.9,left,2.3,3.3,4.2,1,0,1,0,0,16,16,5,,,right,0,6.74E-05,2018_Dec_04_1650,59.96564753,TimingTask,1,bevacqua
1.8,1.2,left,2.3,3.3,4.5,1,0,1,0,0,17,17,12,,,right,0,0.000192853,2018_Dec_04_1650,59.96564753,TimingTask,1,bevacqua
0.9,1.8,right,1.4,2.4,4.2,1,0,1,0,0,18,18,15,,,right,1,0.000201102,2018_Dec_04_1650,59.96564753,TimingTask,1,bevacqua
2.8,2.1,left,3.3,4.3,6.4,1,0,1,0,0,19,19,8,,,right,0,0.000203093,2018_Dec_04_1650,59.96564753,TimingTask,1,bevacqua
1.8,2.7,right,2.3,3.3,6,1,0,1,0,1,0,20,17,,,left,0,0.000202808,2018_Dec_04_1650,59.96564753,TimingTask,1,bevacqua
0.9,1.8,right,1.4,2.4,4.2,1,0,1,0,1,1,21,15,,,right,1,0.000196266,2018_Dec_04_1650,59.96564753,TimingTask,1,bevacqua
1.8,1.2,left,2.3,3.3,4.5,1,0,1,0,1,2,22,12,,,right,0,0.000197404,2018_Dec_04_1650,59.96564753,TimingTask,1,bevacqua
2.1,2.8,right,2.6,3.6,6.4,1,0,1,0,1,3,23,18,,,right,1,0.000208497,2018_Dec_04_1650,59.96564753,TimingTask,1,bevacqua
2.5,1.5,left,3,4,5.5,1,0,1,0,1,4,24,1,,,right,0,0.000200248,2018_Dec_04_1650,59.96564753,TimingTask,1,bevacqua
3.3,4.4,right,3.8,4.8,9.2,1,0,1,0,1,5,25,3,,,left,0,0.000824602,2018_Dec_04_1650,59.96564753,TimingTask,1,bevacqua
3.5,2.1,left,4,5,7.1,1,0,1,0,1,6,26,16,,,right,0,0.000211057,2018_Dec_04_1650,59.96564753,TimingTask,1,bevacqua
8.8,9.9,right,9.3,10.3,20.2,1,0,1,0,1,7,27,14,,,left,0,6.97E-05,2018_Dec_04_1650,59.96564753,TimingTask,1,bevacqua
1.5,2.5,right,2,3,5.5,1,0,1,0,1,8,28,11,,,right,1,0.000207359,2018_Dec_04_1650,59.96564753,TimingTask,1,bevacqua
3.6,3.2,left,4.1,5.1,8.3,1,0,1,0,1,9,29,19,,,right,0,0.000204799,2018_Dec_04_1650,59.96564753,TimingTask,1,bevacqua
1.4,0.7,left,1.9,2.9,3.6,1,0,1,0,1,10,30,10,,,right,0,0.000191715,2018_Dec_04_1650,59.96564753,TimingTask,1,bevacqua
9.9,8.8,left,10.4,11.4,20.2,1,0,1,0,1,11,31,4,,,right,0,0.000234666,2018_Dec_04_1650,59.96564753,TimingTask,1,bevacqua
4.4,3.3,left,4.9,5.9,9.2,1,0,1,0,1,12,32,13,,,right,0,0.000800424,2018_Dec_04_1650,59.96564753,TimingTask,1,bevacqua
1.8,0.9,left,2.3,3.3,4.2,1,0,1,0,1,13,33,5,,,left,1,0.000200248,2018_Dec_04_1650,59.96564753,TimingTask,1,bevacqua
1.2,1.8,right,1.7,2.7,4.5,1,0,1,0,1,14,34,2,,,right,1,0.000200248,2018_Dec_04_1650,59.96564753,TimingTask,1,bevacqua
2.8,2.1,left,3.3,4.3,6.4,1,0,1,0,1,15,35,8,,,left,1,0.000212764,2018_Dec_04_1650,59.96564753,TimingTask,1,bevacqua
0.7,1.4,right,1.2,2.2,3.6,1,0,1,0,1,16,36,0,,,left,0,0.000197973,2018_Dec_04_1650,59.96564753,TimingTask,1,bevacqua
3.2,3.6,right,3.7,4.7,8.3,1,0,1,0,1,17,37,9,,,right,1,0.000199395,2018_Dec_04_1650,59.96564753,TimingTask,1,bevacqua
2.7,1.8,left,3.2,4.2,6,1,0,1,0,1,18,38,7,,,right,0,0.000210204,2018_Dec_04_1650,59.96564753,TimingTask,1,bevacqua
2.1,3.5,right,2.6,3.6,7.1,1,0,1,0,1,19,39,6,,,right,1,0.000213617,2018_Dec_04_1650,59.96564753,TimingTask,1,bevacqua
,,,,,,1,0,1,0,,,,,,,,,,2018_Dec_04_1650,59.96564753,TimingTask,1,bevacqua
3.3,4.4,right,3.8,4.8,9.2,0,0,0,0,0,0,0,3,space,9.160504695,right,1,0.484359102,2018_Dec_04_1653,59.98865277,TimingTask,1,dak
1.4,0.7,left,1.9,2.9,3.6,0,0,0,0,0,1,1,10,,,left,1,6.373260443,2018_Dec_04_1653,59.98865277,TimingTask,1,dak
1.5,2.5,right,2,3,5.5,0,0,0,0,0,2,2,11,,,right,1,0.30113866,2018_Dec_04_1653,59.98865277,TimingTask,1,dak
2.7,1.8,left,3.2,4.2,6,0,0,0,0,0,3,3,7,,,left,1,0.351312413,2018_Dec_04_1653,59.98865277,TimingTask,1,dak
1.8,2.7,right,2.3,3.3,6,0,0,0,0,0,4,4,17,,,right,1,0.284149637,2018_Dec_04_1653,59.98865277,TimingTask,1,dak
8.8,9.9,right,9.3,10.3,20.2,0,0,0,0,0,5,5,14,,,right,1,1.118423676,2018_Dec_04_1653,59.98865277,TimingTask,1,dak
3.2,3.6,right,3.7,4.7,8.3,0,0,0,0,0,6,6,9,,,right,1,1.018490037,2018_Dec_04_1653,59.98865277,TimingTask,1,dak
1.8,1.2,left,2.3,3.3,4.5,0,0,0,0,0,7,7,12,,,left,1,0.901484886,2018_Dec_04_1653,59.98865277,TimingTask,1,dak
2.8,2.1,left,3.3,4.3,6.4,0,0,0,0,0,8,8,8,,,right,0,0.951566479,2018_Dec_04_1653,59.98865277,TimingTask,1,dak
1.8,0.9,left,2.3,3.3,4.2,0,0,0,0,0,9,9,5,,,left,1,0.5350221,2018_Dec_04_1653,59.98865277,TimingTask,1,dak
9.9,8.8,left,10.4,11.4,20.2,0,0,0,0,0,10,10,4,,,right,0,0.467839412,2018_Dec_04_1653,59.98865277,TimingTask,1,dak
1.2,1.8,right,1.7,2.7,4.5,0,0,0,0,0,11,11,2,,,right,1,0.433242984,2018_Dec_04_1653,59.98865277,TimingTask,1,dak
0.9,1.8,right,1.4,2.4,4.2,0,0,0,0,0,12,12,15,,,right,1,0.568436092,2018_Dec_04_1653,59.98865277,TimingTask,1,dak
2.5,1.5,left,3,4,5.5,0,0,0,0,0,13,13,1,,,left,1,0.734815707,2018_Dec_04_1653,59.98865277,TimingTask,1,dak
3.6,3.2,left,4.1,5.1,8.3,0,0,0,0,0,14,14,19,,,right,0,0.032700605,2018_Dec_04_1653,59.98865277,TimingTask,1,dak
2.1,3.5,right,2.6,3.6,7.1,0,0,0,0,0,15,15,6,,,right,1,0.501282703,2018_Dec_04_1653,59.98865277,TimingTask,1,dak
2.1,2.8,right,2.6,3.6,6.4,0,0,0,0,0,16,16,18,,,right,1,0.401066326,2018_Dec_04_1653,59.98865277,TimingTask,1,dak
3.5,2.1,left,4,5,7.1,0,0,0,0,0,17,17,16,,,left,1,0.80136522,2018_Dec_04_1653,59.98865277,TimingTask,1,dak
4.4,3.3,left,4.9,5.9,9.2,0,0,0,0,0,18,18,13,,,left,1,0.601458689,2018_Dec_04_1653,59.98865277,TimingTask,1,dak
0.7,1.4,right,1.2,2.2,3.6,0,0,0,0,0,19,19,0,,,right,1,0.884789694,2018_Dec_04_1653,59.98865277,TimingTask,1,dak
3.6,3.2,left,4.1,5.1,8.3,0,0,0,0,1,0,20,19,,,right,0,0.484399778,2018_Dec_04_1653,59.98865277,TimingTask,1,dak
2.8,2.1,left,3.3,4.3,6.4,0,0,0,0,1,1,21,8,,,left,1,0.951833288,2018_Dec_04_1653,59.98865277,TimingTask,1,dak
1.8,1.2,left,2.3,3.3,4.5,0,0,0,0,1,2,22,12,,,left,1,0.868201169,2018_Dec_04_1653,59.98865277,TimingTask,1,dak
3.5,2.1,left,4,5,7.1,0,0,0,0,1,3,23,16,,,right,0,1.635746779,2018_Dec_04_1653,59.98865277,TimingTask,1,dak
8.8,9.9,right,9.3,10.3,20.2,0,0,0,0,1,4,24,14,,,right,1,0.651328086,2018_Dec_04_1653,59.98865277,TimingTask,1,dak
2.1,3.5,right,2.6,3.6,7.1,0,0,0,0,1,5,25,6,,,right,1,0.350849337,2018_Dec_04_1653,59.98865277,TimingTask,1,dak
0.7,1.4,right,1.2,2.2,3.6,0,0,0,0,1,6,26,0,,,right,1,0.901609473,2018_Dec_04_1653,59.98865277,TimingTask,1,dak
2.5,1.5,left,3,4,5.5,0,0,0,0,1,7,27,1,,,right,0,1.835841898,2018_Dec_04_1653,59.98865277,TimingTask,1,dak
1.5,2.5,right,2,3,5.5,0,0,0,0,1,8,28,11,,,right,1,0.651328939,2018_Dec_04_1653,59.98865277,TimingTask,1,dak
2.7,1.8,left,3.2,4.2,6,0,0,0,0,1,9,29,7,,,left,1,0.41812902,2018_Dec_04_1653,59.98865277,TimingTask,1,dak
3.2,3.6,right,3.7,4.7,8.3,0,0,0,0,1,10,30,9,,,right,1,0.584636919,2018_Dec_04_1653,59.98865277,TimingTask,1,dak
3.3,4.4,right,3.8,4.8,9.2,0,0,0,0,1,11,31,3,,,right,1,0.701107599,2018_Dec_04_1653,59.98865277,TimingTask,1,dak
9.9,8.8,left,10.4,11.4,20.2,0,0,0,0,1,12,32,4,,,left,1,0.584852244,2018_Dec_04_1653,59.98865277,TimingTask,1,dak
1.2,1.8,right,1.7,2.7,4.5,0,0,0,0,1,13,33,2,,,right,1,1.218750418,2018_Dec_04_1653,59.98865277,TimingTask,1,dak
1.8,2.7,right,2.3,3.3,6,0,0,0,0,1,14,34,17,,,right,1,0.751345067,2018_Dec_04_1653,59.98865277,TimingTask,1,dak
1.8,0.9,left,2.3,3.3,4.2,0,0,0,0,1,15,35,5,,,right,0,2.236326534,2018_Dec_04_1653,59.98865277,TimingTask,1,dak
4.4,3.3,left,4.9,5.9,9.2,0,0,0,0,1,16,36,13,,,right,0,0.366492368,2018_Dec_04_1653,59.98865277,TimingTask,1,dak
1.4,0.7,left,1.9,2.9,3.6,0,0,0,0,1,17,37,10,,,left,1,0.718232017,2018_Dec_04_1653,59.98865277,TimingTask,1,dak
2.1,2.8,right,2.6,3.6,6.4,0,0,0,0,1,18,38,18,,,right,1,0.367074911,2018_Dec_04_1653,59.98865277,TimingTask,1,dak
0.9,1.8,right,1.4,2.4,4.2,0,0,0,0,1,19,39,15,,,right,1,0.66826534,2018_Dec_04_1653,59.98865277,TimingTask,1,dak
,,,,,,0,0,0,0,,,,,,,,,,2018_Dec_04_1653,59.98865277,TimingTask,1,dak
3.3,4.4,right,3.8,4.8,9.2,1,0,1,0,0,0,0,3,space,2.803631959,right,1,0.000155875,2018_Dec_04_1653,59.98865277,TimingTask,1,dak
3.5,2.1,left,4,5,7.1,1,0,1,0,0,1,1,16,,,right,0,0.000150186,2018_Dec_04_1653,59.98865277,TimingTask,1,dak
1.5,2.5,right,2,3,5.5,1,0,1,0,0,2,2,11,,,left,0,0.000162703,2018_Dec_04_1653,59.98865277,TimingTask,1,dak
4.4,3.3,left,4.9,5.9,9.2,1,0,1,0,0,3,3,13,,,right,0,0.000149334,2018_Dec_04_1653,59.98865277,TimingTask,1,dak
0.7,1.4,right,1.2,2.2,3.6,1,0,1,0,0,4,4,0,,,left,0,0.000164125,2018_Dec_04_1653,59.98865277,TimingTask,1,dak
1.8,0.9,left,2.3,3.3,4.2,1,0,1,0,0,5,5,5,,,right,0,0.000175502,2018_Dec_04_1653,59.98865277,TimingTask,1,dak
1.4,0.7,left,1.9,2.9,3.6,1,0,1,0,0,6,6,10,,,left,1,0.000167538,2018_Dec_04_1653,59.98865277,TimingTask,1,dak
2.5,1.5,left,3,4,5.5,1,0,1,0,0,7,7,1,,,left,1,0.00015872,2018_Dec_04_1653,59.98865277,TimingTask,1,dak
1.8,1.2,left,2.3,3.3,4.5,1,0,1,0,0,8,8,12,,,right,0,0.000152462,2018_Dec_04_1653,59.98865277,TimingTask,1,dak
3.6,3.2,left,4.1,5.1,8.3,1,0,1,0,0,9,9,19,,,right,0,0.000152747,2018_Dec_04_1653,59.98865277,TimingTask,1,dak
2.1,2.8,right,2.6,3.6,6.4,1,0,1,0,0,10,10,18,,,right,1,8.274738787,2018_Dec_04_1653,59.98865277,TimingTask,1,dak
2.1,3.5,right,2.6,3.6,7.1,1,0,1,0,0,11,11,6,,,left,0,1.352447063,2018_Dec_04_1653,59.98865277,TimingTask,1,dak
8.8,9.9,right,9.3,10.3,20.2,1,0,1,0,0,12,12,14,,,right,1,0.668004789,2018_Dec_04_1653,59.98865277,TimingTask,1,dak
2.8,2.1,left,3.3,4.3,6.4,1,0,1,0,0,13,13,8,,,right,0,1.385396841,2018_Dec_04_1653,59.98865277,TimingTask,1,dak
3.2,3.6,right,3.7,4.7,8.3,1,0,1,0,0,14,14,9,,,right,1,0.384504538,2018_Dec_04_1653,59.98865277,TimingTask,1,dak
0.9,1.8,right,1.4,2.4,4.2,1,0,1,0,0,15,15,15,,,right,1,0.384366015,2018_Dec_04_1653,59.98865277,TimingTask,1,dak
1.2,1.8,right,1.7,2.7,4.5,1,0,1,0,0,16,16,2,,,right,1,0.684027269,2018_Dec_04_1653,59.98865277,TimingTask,1,dak
2.7,1.8,left,3.2,4.2,6,1,0,1,0,0,17,17,7,,,right,0,0.701425323,2018_Dec_04_1653,59.98865277,TimingTask,1,dak
9.9,8.8,left,10.4,11.4,20.2,1,0,1,0,0,18,18,4,,,left,1,0.000160996,2018_Dec_04_1653,59.98865277,TimingTask,1,dak
1.8,2.7,right,2.3,3.3,6,1,0,1,0,0,19,19,17,,,left,0,0.000158151,2018_Dec_04_1653,59.98865277,TimingTask,1,dak
1.5,2.5,right,2,3,5.5,1,0,1,0,1,0,20,11,,,right,1,0.000158151,2018_Dec_04_1653,59.98865277,TimingTask,1,dak
8.8,9.9,right,9.3,10.3,20.2,1,0,1,0,1,1,21,14,,,right,1,2.019320331,2018_Dec_04_1653,59.98865277,TimingTask,1,dak
2.7,1.8,left,3.2,4.2,6,1,0,1,0,1,2,22,7,,,right,0,0.000161849,2018_Dec_04_1653,59.98865277,TimingTask,1,dak
3.3,4.4,right,3.8,4.8,9.2,1,0,1,0,1,3,23,3,,,right,1,0.000154738,2018_Dec_04_1653,59.98865277,TimingTask,1,dak
2.1,2.8,right,2.6,3.6,6.4,1,0,1,0,1,4,24,18,,,right,1,0.000159858,2018_Dec_04_1653,59.98865277,TimingTask,1,dak
2.5,1.5,left,3,4,5.5,1,0,1,0,1,5,25,1,,,right,0,4.122202808,2018_Dec_04_1653,59.98865277,TimingTask,1,dak
3.6,3.2,left,4.1,5.1,8.3,1,0,1,0,1,6,26,19,,,right,0,0.417775455,2018_Dec_04_1653,59.98865277,TimingTask,1,dak
1.8,1.2,left,2.3,3.3,4.5,1,0,1,0,1,7,27,12,,,right,0,1.668564292,2018_Dec_04_1653,59.98865277,TimingTask,1,dak
1.2,1.8,right,1.7,2.7,4.5,1,0,1,0,1,8,28,2,,,right,1,2.970446774,2018_Dec_04_1653,59.98865277,TimingTask,1,dak
4.4,3.3,left,4.9,5.9,9.2,1,0,1,0,1,9,29,13,,,left,1,1.001456641,2018_Dec_04_1653,59.98865277,TimingTask,1,dak
1.8,0.9,left,2.3,3.3,4.2,1,0,1,0,1,10,30,5,,,right,0,1.085240937,2018_Dec_04_1653,59.98865277,TimingTask,1,dak
2.8,2.1,left,3.3,4.3,6.4,1,0,1,0,1,11,31,8,,,right,0,0.668294638,2018_Dec_04_1653,59.98865277,TimingTask,1,dak
9.9,8.8,left,10.4,11.4,20.2,1,0,1,0,1,12,32,4,,,right,0,0.750563414,2018_Dec_04_1653,59.98865277,TimingTask,1,dak
1.8,2.7,right,2.3,3.3,6,1,0,1,0,1,13,33,17,,,right,1,0.702478622,2018_Dec_04_1653,59.98865277,TimingTask,1,dak
3.2,3.6,right,3.7,4.7,8.3,1,0,1,0,1,14,34,9,,,left,0,0.534578082,2018_Dec_04_1653,59.98865277,TimingTask,1,dak
3.5,2.1,left,4,5,7.1,1,0,1,0,1,15,35,16,,,right,0,0.985120987,2018_Dec_04_1653,59.98865277,TimingTask,1,dak
2.1,3.5,right,2.6,3.6,7.1,1,0,1,0,1,16,36,6,,,left,0,1.935966968,2018_Dec_04_1653,59.98865277,TimingTask,1,dak
0.7,1.4,right,1.2,2.2,3.6,1,0,1,0,1,17,37,0,,,right,1,10.77808514,2018_Dec_04_1653,59.98865277,TimingTask,1,dak
1.4,0.7,left,1.9,2.9,3.6,1,0,1,0,1,18,38,10,,,left,1,0.651370184,2018_Dec_04_1653,59.98865277,TimingTask,1,dak
0.9,1.8,right,1.4,2.4,4.2,1,0,1,0,1,19,39,15,,,right,1,0.901099464,2018_Dec_04_1653,59.98865277,TimingTask,1,dak
,,,,,,1,0,1,0,,,,,,,,,,2018_Dec_04_1653,59.98865277,TimingTask,1,dak
1.2,1.8,right,1.7,2.7,4.5,0,0,0,0,0,0,0,2,space,1.650898019,right,1,0.288284931,2018_Dec_04_1656,None,TimingTask,1,elianar
2.8,2.1,left,3.3,4.3,6.4,0,0,0,0,0,1,1,8,,,left,1,0.504132977,2018_Dec_04_1656,None,TimingTask,1,elianar
0.9,1.8,right,1.4,2.4,4.2,0,0,0,0,0,2,2,15,,,right,1,0.304521869,2018_Dec_04_1656,None,TimingTask,1,elianar
1.5,2.5,right,2,3,5.5,0,0,0,0,0,3,3,11,,,right,1,0.246468481,2018_Dec_04_1656,None,TimingTask,1,elianar
1.4,0.7,left,1.9,2.9,3.6,0,0,0,0,0,4,4,10,,,left,1,0.567343625,2018_Dec_04_1656,None,TimingTask,1,elianar
8.8,9.9,right,9.3,10.3,20.2,0,0,0,0,0,5,5,14,,,right,1,0.654750249,2018_Dec_04_1656,None,TimingTask,1,elianar
1.8,2.7,right,2.3,3.3,6,0,0,0,0,0,6,6,17,,,right,1,0.362681639,2018_Dec_04_1656,None,TimingTask,1,elianar
1.8,1.2,left,2.3,3.3,4.5,0,0,0,0,0,7,7,12,,,left,1,0.929832696,2018_Dec_04_1656,None,TimingTask,1,elianar
1.8,0.9,left,2.3,3.3,4.2,0,0,0,0,0,8,8,5,,,left,1,0.700474112,2018_Dec_04_1656,None,TimingTask,1,elianar
3.6,3.2,left,4.1,5.1,8.3,0,0,0,0,0,9,9,19,,,left,1,0.750871395,2018_Dec_04_1656,None,TimingTask,1,elianar
2.1,3.5,right,2.6,3.6,7.1,0,0,0,0,0,10,10,6,,,right,1,0.434131788,2018_Dec_04_1656,None,TimingTask,1,elianar
2.5,1.5,left,3,4,5.5,0,0,0,0,0,11,11,1,,,right,0,0.754751501,2018_Dec_04_1656,None,TimingTask,1,elianar
3.5,2.1,left,4,5,7.1,0,0,0,0,0,12,12,16,,,left,1,0.54639572,2018_Dec_04_1656,None,TimingTask,1,elianar
4.4,3.3,left,4.9,5.9,9.2,0,0,0,0,0,13,13,13,,,left,1,0.796315365,2018_Dec_04_1656,None,TimingTask,1,elianar
3.2,3.6,right,3.7,4.7,8.3,0,0,0,0,0,14,14,9,,,right,1,0.500669582,2018_Dec_04_1656,None,TimingTask,1,elianar
2.7,1.8,left,3.2,4.2,6,0,0,0,0,0,15,15,7,,,left,1,0.604890566,2018_Dec_04_1656,None,TimingTask,1,elianar
0.7,1.4,right,1.2,2.2,3.6,0,0,0,0,0,16,16,0,,,right,1,0.317350594,2018_Dec_04_1656,None,TimingTask,1,elianar
3.3,4.4,right,3.8,4.8,9.2,0,0,0,0,0,17,17,3,,,right,1,0.383843731,2018_Dec_04_1656,None,TimingTask,1,elianar
9.9,8.8,left,10.4,11.4,20.2,0,0,0,0,0,18,18,4,,,left,1,0.671478138,2018_Dec_04_1656,None,TimingTask,1,elianar
2.1,2.8,right,2.6,3.6,6.4,0,0,0,0,0,19,19,18,,,left,0,0.663424949,2018_Dec_04_1656,None,TimingTask,1,elianar
3.5,2.1,left,4,5,7.1,0,0,0,0,1,0,20,16,,,left,1,0.663267082,2018_Dec_04_1656,None,TimingTask,1,elianar
4.4,3.3,left,4.9,5.9,9.2,0,0,0,0,1,1,21,13,,,left,1,0.60064694,2018_Dec_04_1656,None,TimingTask,1,elianar
1.4,0.7,left,1.9,2.9,3.6,0,0,0,0,1,2,22,10,,,left,1,0.650657379,2018_Dec_04_1656,None,TimingTask,1,elianar
2.7,1.8,left,3.2,4.2,6,0,0,0,0,1,3,23,7,,,left,1,0.529958534,2018_Dec_04_1656,None,TimingTask,1,elianar
1.2,1.8,right,1.7,2.7,4.5,0,0,0,0,1,4,24,2,,,right,1,0.666691224,2018_Dec_04_1656,None,TimingTask,1,elianar
1.5,2.5,right,2,3,5.5,0,0,0,0,1,5,25,11,,,right,1,0.350744078,2018_Dec_04_1656,None,TimingTask,1,elianar
2.8,2.1,left,3.3,4.3,6.4,0,0,0,0,1,6,26,8,,,right,0,0.617302296,2018_Dec_04_1656,None,TimingTask,1,elianar
1.8,1.2,left,2.3,3.3,4.5,0,0,0,0,1,7,27,12,,,left,1,0.554693816,2018_Dec_04_1656,None,TimingTask,1,elianar
0.9,1.8,right,1.4,2.4,4.2,0,0,0,0,1,8,28,15,,,right,1,0.33407507,2018_Dec_04_1656,None,TimingTask,1,elianar
2.1,3.5,right,2.6,3.6,7.1,0,0,0,0,1,9,29,6,,,right,1,0.354762424,2018_Dec_04_1656,None,TimingTask,1,elianar
3.3,4.4,right,3.8,4.8,9.2,0,0,0,0,1,10,30,3,,,right,1,0.3218323,2018_Dec_04_1656,None,TimingTask,1,elianar
2.1,2.8,right,2.6,3.6,6.4,0,0,0,0,1,11,31,18,,,left,0,1.038208558,2018_Dec_04_1656,None,TimingTask,1,elianar
3.6,3.2,left,4.1,5.1,8.3,0,0,0,0,1,12,32,19,,,left,1,0.80059739,2018_Dec_04_1656,None,TimingTask,1,elianar
3.2,3.6,right,3.7,4.7,8.3,0,0,0,0,1,13,33,9,,,right,1,0.633955091,2018_Dec_04_1656,None,TimingTask,1,elianar
2.5,1.5,left,3,4,5.5,0,0,0,0,1,14,34,1,,,left,1,0.588040082,2018_Dec_04_1656,None,TimingTask,1,elianar
8.8,9.9,right,9.3,10.3,20.2,0,0,0,0,1,15,35,14,,,right,1,0.488303363,2018_Dec_04_1656,None,TimingTask,1,elianar
9.9,8.8,left,10.4,11.4,20.2,0,0,0,0,1,16,36,4,,,left,1,0.767472422,2018_Dec_04_1656,None,TimingTask,1,elianar
1.8,0.9,left,2.3,3.3,4.2,0,0,0,0,1,17,37,5,,,left,1,0.621170454,2018_Dec_04_1656,None,TimingTask,1,elianar
1.8,2.7,right,2.3,3.3,6,0,0,0,0,1,18,38,17,,,right,1,0.371451912,2018_Dec_04_1656,None,TimingTask,1,elianar
0.7,1.4,right,1.2,2.2,3.6,0,0,0,0,1,19,39,0,,,right,1,0.317670025,2018_Dec_04_1656,None,TimingTask,1,elianar
,,,,,,0,0,0,0,,,,,,,,,,2018_Dec_04_1656,None,TimingTask,1,elianar
2.7,1.8,left,3.2,4.2,6,1,0,1,0,0,0,0,7,space,2.134139126,left,1,0.662800025,2018_Dec_04_1656,None,TimingTask,1,elianar
2.1,2.8,right,2.6,3.6,6.4,1,0,1,0,0,1,1,18,,,right,1,0.583882358,2018_Dec_04_1656,None,TimingTask,1,elianar
2.1,3.5,right,2.6,3.6,7.1,1,0,1,0,0,2,2,6,,,right,1,0.313505475,2018_Dec_04_1656,None,TimingTask,1,elianar
9.9,8.8,left,10.4,11.4,20.2,1,0,1,0,0,3,3,4,,,left,1,0.583440332,2018_Dec_04_1656,None,TimingTask,1,elianar
1.8,1.2,left,2.3,3.3,4.5,1,0,1,0,0,4,4,12,,,left,1,0.713232579,2018_Dec_04_1656,None,TimingTask,1,elianar
3.3,4.4,right,3.8,4.8,9.2,1,0,1,0,0,5,5,3,,,right,1,0.317482576,2018_Dec_04_1656,None,TimingTask,1,elianar
1.8,0.9,left,2.3,3.3,4.2,1,0,1,0,0,6,6,5,,,left,1,0.667339188,2018_Dec_04_1656,None,TimingTask,1,elianar
0.9,1.8,right,1.4,2.4,4.2,1,0,1,0,0,7,7,15,,,right,1,0.316930754,2018_Dec_04_1656,None,TimingTask,1,elianar
1.4,0.7,left,1.9,2.9,3.6,1,0,1,0,0,8,8,10,,,left,1,0.717402249,2018_Dec_04_1656,None,TimingTask,1,elianar
3.6,3.2,left,4.1,5.1,8.3,1,0,1,0,0,9,9,19,,,left,1,0.654673165,2018_Dec_04_1656,None,TimingTask,1,elianar
1.8,2.7,right,2.3,3.3,6,1,0,1,0,0,10,10,17,,,right,1,0.538247527,2018_Dec_04_1656,None,TimingTask,1,elianar
1.2,1.8,right,1.7,2.7,4.5,1,0,1,0,0,11,11,2,,,right,1,0.346515244,2018_Dec_04_1656,None,TimingTask,1,elianar
3.5,2.1,left,4,5,7.1,1,0,1,0,0,12,12,16,,,left,1,0.54659028,2018_Dec_04_1656,None,TimingTask,1,elianar
2.5,1.5,left,3,4,5.5,1,0,1,0,0,13,13,1,,,left,1,0.683873939,2018_Dec_04_1656,None,TimingTask,1,elianar
8.8,9.9,right,9.3,10.3,20.2,1,0,1,0,0,14,14,14,,,right,1,0.466871334,2018_Dec_04_1656,None,TimingTask,1,elianar
2.8,2.1,left,3.3,4.3,6.4,1,0,1,0,0,15,15,8,,,left,1,0.584125843,2018_Dec_04_1656,None,TimingTask,1,elianar
1.5,2.5,right,2,3,5.5,1,0,1,0,0,16,16,11,,,right,1,0.35084022,2018_Dec_04_1656,None,TimingTask,1,elianar
0.7,1.4,right,1.2,2.2,3.6,1,0,1,0,0,17,17,0,,,right,1,0.821586255,2018_Dec_04_1656,None,TimingTask,1,elianar
3.2,3.6,right,3.7,4.7,8.3,1,0,1,0,0,18,18,9,,,right,1,0.90067857,2018_Dec_04_1656,None,TimingTask,1,elianar
4.4,3.3,left,4.9,5.9,9.2,1,0,1,0,0,19,19,13,,,left,1,0.421448982,2018_Dec_04_1656,None,TimingTask,1,elianar
1.5,2.5,right,2,3,5.5,1,0,1,0,1,0,20,11,,,right,1,0.633899624,2018_Dec_04_1656,None,TimingTask,1,elianar
2.5,1.5,left,3,4,5.5,1,0,1,0,1,1,21,1,,,left,1,0.550740323,2018_Dec_04_1656,None,TimingTask,1,elianar
1.8,0.9,left,2.3,3.3,4.2,1,0,1,0,1,2,22,5,,,left,1,0.538198318,2018_Dec_04_1656,None,TimingTask,1,elianar
0.7,1.4,right,1.2,2.2,3.6,1,0,1,0,1,3,23,0,,,right,1,0.350831402,2018_Dec_04_1656,None,TimingTask,1,elianar
2.8,2.1,left,3.3,4.3,6.4,1,0,1,0,1,4,24,8,,,left,1,0.616927682,2018_Dec_04_1656,None,TimingTask,1,elianar
1.2,1.8,right,1.7,2.7,4.5,1,0,1,0,1,5,25,2,,,right,1,0.404700045,2018_Dec_04_1656,None,TimingTask,1,elianar
3.6,3.2,left,4.1,5.1,8.3,1,0,1,0,1,6,26,19,,,left,1,0.983982938,2018_Dec_04_1656,None,TimingTask,1,elianar
9.9,8.8,left,10.4,11.4,20.2,1,0,1,0,1,7,27,4,,,left,1,0.63389422,2018_Dec_04_1656,None,TimingTask,1,elianar
3.5,2.1,left,4,5,7.1,1,0,1,0,1,8,28,16,,,left,1,0.700755427,2018_Dec_04_1656,None,TimingTask,1,elianar
1.4,0.7,left,1.9,2.9,3.6,1,0,1,0,1,9,29,10,,,left,1,0.671384556,2018_Dec_04_1656,None,TimingTask,1,elianar
3.3,4.4,right,3.8,4.8,9.2,1,0,1,0,1,10,30,3,,,right,1,0.379886541,2018_Dec_04_1656,None,TimingTask,1,elianar
1.8,1.2,left,2.3,3.3,4.5,1,0,1,0,1,11,31,12,,,left,1,0.521479247,2018_Dec_04_1656,None,TimingTask,1,elianar
4.4,3.3,left,4.9,5.9,9.2,1,0,1,0,1,12,32,13,,,left,1,0.684069637,2018_Dec_04_1656,None,TimingTask,1,elianar
3.2,3.6,right,3.7,4.7,8.3,1,0,1,0,1,13,33,9,,,right,1,0.530017414,2018_Dec_04_1656,None,TimingTask,1,elianar
2.7,1.8,left,3.2,4.2,6,1,0,1,0,1,14,34,7,,,left,1,0.534053679,2018_Dec_04_1656,None,TimingTask,1,elianar
2.1,2.8,right,2.6,3.6,6.4,1,0,1,0,1,15,35,18,,,right,1,0.420530227,2018_Dec_04_1656,None,TimingTask,1,elianar
2.1,3.5,right,2.6,3.6,7.1,1,0,1,0,1,16,36,6,,,right,1,0.350756878,2018_Dec_04_1656,None,TimingTask,1,elianar
1.8,2.7,right,2.3,3.3,6,1,0,1,0,1,17,37,17,,,right,1,0.879842167,2018_Dec_04_1656,None,TimingTask,1,elianar
8.8,9.9,right,9.3,10.3,20.2,1,0,1,0,1,18,38,14,,,left,0,0.767174324,2018_Dec_04_1656,None,TimingTask,1,elianar
0.9,1.8,right,1.4,2.4,4.2,1,0,1,0,1,19,39,15,,,right,1,0.738006261,2018_Dec_04_1656,None,TimingTask,1,elianar
,,,,,,1,0,1,0,,,,,,,,,,2018_Dec_04_1656,None,TimingTask,1,elianar
3.3,4.4,right,3.8,4.8,9.2,0,0,0,0,0,0,0,3,space,0.755136702,right,1,0.000195413,2018_Dec_04_1652,59.96382354,TimingTask,1,ethansw
9.9,8.8,left,10.4,11.4,20.2,0,0,0,0,0,1,1,4,,,right,0,0.000203093,2018_Dec_04_1652,59.96382354,TimingTask,1,ethansw
0.7,1.4,right,1.2,2.2,3.6,0,0,0,0,0,2,2,0,,,right,1,0.000200249,2018_Dec_04_1652,59.96382354,TimingTask,1,ethansw
2.1,2.8,right,2.6,3.6,6.4,0,0,0,0,0,3,3,18,,,left,0,0.000196835,2018_Dec_04_1652,59.96382354,TimingTask,1,ethansw
3.6,3.2,left,4.1,5.1,8.3,0,0,0,0,0,4,4,19,,,left,1,0.000165546,2018_Dec_04_1652,59.96382354,TimingTask,1,ethansw
1.4,0.7,left,1.9,2.9,3.6,0,0,0,0,0,5,5,10,,,left,1,0.00020224,2018_Dec_04_1652,59.96382354,TimingTask,1,ethansw
1.5,2.5,right,2,3,5.5,0,0,0,0,0,6,6,11,,,right,1,0.000204231,2018_Dec_04_1652,59.96382354,TimingTask,1,ethansw
8.8,9.9,right,9.3,10.3,20.2,0,0,0,0,0,7,7,14,,,left,0,0.000219591,2018_Dec_04_1652,59.96382354,TimingTask,1,ethansw
1.2,1.8,right,1.7,2.7,4.5,0,0,0,0,0,8,8,2,,,right,1,0.000209351,2018_Dec_04_1652,59.96382354,TimingTask,1,ethansw
4.4,3.3,left,4.9,5.9,9.2,0,0,0,0,0,9,9,13,,,right,0,0.000190293,2018_Dec_04_1652,59.96382354,TimingTask,1,ethansw
2.7,1.8,left,3.2,4.2,6,0,0,0,0,0,10,10,7,,,left,1,0.000193422,2018_Dec_04_1652,59.96382354,TimingTask,1,ethansw
3.2,3.6,right,3.7,4.7,8.3,0,0,0,0,0,11,11,9,,,left,0,0.000204515,2018_Dec_04_1652,59.96382354,TimingTask,1,ethansw
1.8,2.7,right,2.3,3.3,6,0,0,0,0,0,12,12,17,,,right,1,0.000209066,2018_Dec_04_1652,59.96382354,TimingTask,1,ethansw
0.9,1.8,right,1.4,2.4,4.2,0,0,0,0,0,13,13,15,,,left,0,0.000216177,2018_Dec_04_1652,59.96382354,TimingTask,1,ethansw
1.8,1.2,left,2.3,3.3,4.5,0,0,0,0,0,14,14,12,,,left,1,0.000214755,2018_Dec_04_1652,59.96382354,TimingTask,1,ethansw
2.5,1.5,left,3,4,5.5,0,0,0,0,0,15,15,1,,,left,1,0.000213048,2018_Dec_04_1652,59.96382354,TimingTask,1,ethansw
2.8,2.1,left,3.3,4.3,6.4,0,0,0,0,0,16,16,8,,,left,1,0.000220729,2018_Dec_04_1652,59.96382354,TimingTask,1,ethansw
1.8,0.9,left,2.3,3.3,4.2,0,0,0,0,0,17,17,5,,,left,1,0.000200249,2018_Dec_04_1652,59.96382354,TimingTask,1,ethansw
3.5,2.1,left,4,5,7.1,0,0,0,0,0,18,18,16,,,left,1,0.000181475,2018_Dec_04_1652,59.96382354,TimingTask,1,ethansw
2.1,3.5,right,2.6,3.6,7.1,0,0,0,0,0,19,19,6,,,left,0,0.000222151,2018_Dec_04_1652,59.96382354,TimingTask,1,ethansw
8.8,9.9,right,9.3,10.3,20.2,0,0,0,0,1,0,20,14,,,left,0,0.000229831,2018_Dec_04_1652,59.96382354,TimingTask,1,ethansw
2.7,1.8,left,3.2,4.2,6,0,0,0,0,1,1,21,7,,,right,0,0.000261404,2018_Dec_04_1652,59.96382354,TimingTask,1,ethansw
3.3,4.4,right,3.8,4.8,9.2,0,0,0,0,1,2,22,3,,,left,0,0.000247182,2018_Dec_04_1652,59.96382354,TimingTask,1,ethansw
1.5,2.5,right,2,3,5.5,0,0,0,0,1,3,23,11,,,left,0,0.000231822,2018_Dec_04_1652,59.96382354,TimingTask,1,ethansw
3.2,3.6,right,3.7,4.7,8.3,0,0,0,0,1,4,24,9,,,left,0,0.00023808,2018_Dec_04_1652,59.96382354,TimingTask,1,ethansw
0.9,1.8,right,1.4,2.4,4.2,0,0,0,0,1,5,25,15,,,left,0,0.000212764,2018_Dec_04_1652,59.96382354,TimingTask,1,ethansw
3.6,3.2,left,4.1,5.1,8.3,0,0,0,0,1,6,26,19,,,right,0,0.000220729,2018_Dec_04_1652,59.96382354,TimingTask,1,ethansw
4.4,3.3,left,4.9,5.9,9.2,0,0,0,0,1,7,27,13,,,right,0,0.000243769,2018_Dec_04_1652,59.96382354,TimingTask,1,ethansw
1.2,1.8,right,1.7,2.7,4.5,0,0,0,0,1,8,28,2,,,right,1,0.00021504,2018_Dec_04_1652,59.96382354,TimingTask,1,ethansw
1.4,0.7,left,1.9,2.9,3.6,0,0,0,0,1,9,29,10,,,right,0,0.000216177,2018_Dec_04_1652,59.96382354,TimingTask,1,ethansw
0.7,1.4,right,1.2,2.2,3.6,0,0,0,0,1,10,30,0,,,right,1,0.000240071,2018_Dec_04_1652,59.96382354,TimingTask,1,ethansw
3.5,2.1,left,4,5,7.1,0,0,0,0,1,11,31,16,,,left,1,0.000248035,2018_Dec_04_1652,59.96382354,TimingTask,1,ethansw
9.9,8.8,left,10.4,11.4,20.2,0,0,0,0,1,12,32,4,,,left,1,0.000260551,2018_Dec_04_1652,59.96382354,TimingTask,1,ethansw
1.8,0.9,left,2.3,3.3,4.2,0,0,0,0,1,13,33,5,,,right,0,0.000247182,2018_Dec_04_1652,59.96382354,TimingTask,1,ethansw
1.8,1.2,left,2.3,3.3,4.5,0,0,0,0,1,14,34,12,,,right,0,0.000255431,2018_Dec_04_1652,59.96382354,TimingTask,1,ethansw
1.8,2.7,right,2.3,3.3,6,0,0,0,0,1,15,35,17,,,left,0,0.000257991,2018_Dec_04_1652,59.96382354,TimingTask,1,ethansw
2.1,2.8,right,2.6,3.6,6.4,0,0,0,0,1,16,36,18,,,right,1,0.000260266,2018_Dec_04_1652,59.96382354,TimingTask,1,ethansw
2.5,1.5,left,3,4,5.5,0,0,0,0,1,17,37,1,,,left,1,0.000238933,2018_Dec_04_1652,59.96382354,TimingTask,1,ethansw
2.1,3.5,right,2.6,3.6,7.1,0,0,0,0,1,18,38,6,,,left,0,0.000238364,2018_Dec_04_1652,59.96382354,TimingTask,1,ethansw
2.8,2.1,left,3.3,4.3,6.4,0,0,0,0,1,19,39,8,,,right,0,0.000260835,2018_Dec_04_1652,59.96382354,TimingTask,1,ethansw
,,,,,,0,0,0,0,,,,,,,,,,2018_Dec_04_1652,59.96382354,TimingTask,1,ethansw
3.5,2.1,left,4,5,7.1,1,0,1,0,0,0,0,16,space,0.971805915,right,0,0.000820052,2018_Dec_04_1652,59.96382354,TimingTask,1,ethansw
2.8,2.1,left,3.3,4.3,6.4,1,0,1,0,0,1,1,8,,,right,0,0.000224995,2018_Dec_04_1652,59.96382354,TimingTask,1,ethansw
1.2,1.8,right,1.7,2.7,4.5,1,0,1,0,0,2,2,2,,,right,1,0.000201671,2018_Dec_04_1652,59.96382354,TimingTask,1,ethansw
1.8,0.9,left,2.3,3.3,4.2,1,0,1,0,0,3,3,5,,,left,1,0.000203946,2018_Dec_04_1652,59.96382354,TimingTask,1,ethansw
3.2,3.6,right,3.7,4.7,8.3,1,0,1,0,0,4,4,9,,,right,1,0.000211057,2018_Dec_04_1652,59.96382354,TimingTask,1,ethansw
8.8,9.9,right,9.3,10.3,20.2,1,0,1,0,0,5,5,14,,,right,1,0.000234382,2018_Dec_04_1652,59.96382354,TimingTask,1,ethansw
4.4,3.3,left,4.9,5.9,9.2,1,0,1,0,0,6,6,13,,,left,1,0.000221866,2018_Dec_04_1652,59.96382354,TimingTask,1,ethansw
0.9,1.8,right,1.4,2.4,4.2,1,0,1,0,0,7,7,15,,,left,0,0.000222151,2018_Dec_04_1652,59.96382354,TimingTask,1,ethansw
9.9,8.8,left,10.4,11.4,20.2,1,0,1,0,0,8,8,4,,,right,0,0.000249457,2018_Dec_04_1652,59.96382354,TimingTask,1,ethansw
2.1,3.5,right,2.6,3.6,7.1,1,0,1,0,0,9,9,6,,,left,0,0.000710256,2018_Dec_04_1652,59.96382354,TimingTask,1,ethansw
1.8,1.2,left,2.3,3.3,4.5,1,0,1,0,0,10,10,12,,,right,0,0.000292693,2018_Dec_04_1652,59.96382354,TimingTask,1,ethansw
2.1,2.8,right,2.6,3.6,6.4,1,0,1,0,0,11,11,18,,,left,0,0.000232675,2018_Dec_04_1652,59.96382354,TimingTask,1,ethansw
3.3,4.4,right,3.8,4.8,9.2,1,0,1,0,0,12,12,3,,,left,0,0.000248319,2018_Dec_04_1652,59.96382354,TimingTask,1,ethansw
1.4,0.7,left,1.9,2.9,3.6,1,0,1,0,0,13,13,10,,,right,0,0.000245475,2018_Dec_04_1652,59.96382354,TimingTask,1,ethansw
1.5,2.5,right,2,3,5.5,1,0,1,0,0,14,14,11,,,left,0,0.000257991,2018_Dec_04_1652,59.96382354,TimingTask,1,ethansw
2.5,1.5,left,3,4,5.5,1,0,1,0,0,15,15,1,,,left,1,0.000258844,2018_Dec_04_1652,59.96382354,TimingTask,1,ethansw
1.8,2.7,right,2.3,3.3,6,1,0,1,0,0,16,16,17,,,right,1,0.000248035,2018_Dec_04_1652,59.96382354,TimingTask,1,ethansw
2.7,1.8,left,3.2,4.2,6,1,0,1,0,0,17,17,7,,,right,0,0.000234097,2018_Dec_04_1652,59.96382354,TimingTask,1,ethansw
3.6,3.2,left,4.1,5.1,8.3,1,0,1,0,0,18,18,19,,,left,1,0.000254008,2018_Dec_04_1652,59.96382354,TimingTask,1,ethansw
0.7,1.4,right,1.2,2.2,3.6,1,0,1,0,0,19,19,0,,,left,0,3.196370154,2018_Dec_04_1652,59.96382354,TimingTask,1,ethansw
2.1,3.5,right,2.6,3.6,7.1,1,0,1,0,1,0,20,6,,,right,1,0.000259413,2018_Dec_04_1652,59.96382354,TimingTask,1,ethansw
3.5,2.1,left,4,5,7.1,1,0,1,0,1,1,21,16,,,right,0,0.000271644,2018_Dec_04_1652,59.96382354,TimingTask,1,ethansw
9.9,8.8,left,10.4,11.4,20.2,1,0,1,0,1,2,22,4,,,right,0,0.000279039,2018_Dec_04_1652,59.96382354,TimingTask,1,ethansw
1.8,2.7,right,2.3,3.3,6,1,0,1,0,1,3,23,17,,,left,0,0.000278471,2018_Dec_04_1652,59.96382354,TimingTask,1,ethansw
2.8,2.1,left,3.3,4.3,6.4,1,0,1,0,1,4,24,8,,,right,0,0.000285582,2018_Dec_04_1652,59.96382354,TimingTask,1,ethansw
2.1,2.8,right,2.6,3.6,6.4,1,0,1,0,1,5,25,18,,,right,1,0.000285013,2018_Dec_04_1652,59.96382354,TimingTask,1,ethansw
2.7,1.8,left,3.2,4.2,6,1,0,1,0,1,6,26,7,,,right,0,0.000289849,2018_Dec_04_1652,59.96382354,TimingTask,1,ethansw
0.9,1.8,right,1.4,2.4,4.2,1,0,1,0,1,7,27,15,,,left,0,0.000295822,2018_Dec_04_1652,59.96382354,TimingTask,1,ethansw
3.6,3.2,left,4.1,5.1,8.3,1,0,1,0,1,8,28,19,,,right,0,0.000300657,2018_Dec_04_1652,59.96382354,TimingTask,1,ethansw
1.4,0.7,left,1.9,2.9,3.6,1,0,1,0,1,9,29,10,,,left,1,0.613406242,2018_Dec_04_1652,59.96382354,TimingTask,1,ethansw
2.5,1.5,left,3,4,5.5,1,0,1,0,1,10,30,1,,,right,0,27.49433857,2018_Dec_04_1652,59.96382354,TimingTask,1,ethansw
0.7,1.4,right,1.2,2.2,3.6,1,0,1,0,1,11,31,0,,,right,1,0.000275911,2018_Dec_04_1652,59.96382354,TimingTask,1,ethansw
4.4,3.3,left,4.9,5.9,9.2,1,0,1,0,1,12,32,13,,,left,1,0.000311751,2018_Dec_04_1652,59.96382354,TimingTask,1,ethansw
1.5,2.5,right,2,3,5.5,1,0,1,0,1,13,33,11,,,right,1,0.000321991,2018_Dec_04_1652,59.96382354,TimingTask,1,ethansw
8.8,9.9,right,9.3,10.3,20.2,1,0,1,0,1,14,34,14,,,left,0,0.000311466,2018_Dec_04_1652,59.96382354,TimingTask,1,ethansw
1.8,1.2,left,2.3,3.3,4.5,1,0,1,0,1,15,35,12,,,right,0,0.00034304,2018_Dec_04_1652,59.96382354,TimingTask,1,ethansw
1.2,1.8,right,1.7,2.7,4.5,1,0,1,0,1,16,36,2,,,left,0,0.00030464,2018_Dec_04_1652,59.96382354,TimingTask,1,ethansw
3.2,3.6,right,3.7,4.7,8.3,1,0,1,0,1,17,37,9,,,left,0,0.000339626,2018_Dec_04_1652,59.96382354,TimingTask,1,ethansw
3.3,4.4,right,3.8,4.8,9.2,1,0,1,0,1,18,38,3,,,right,1,0.000344746,2018_Dec_04_1652,59.96382354,TimingTask,1,ethansw
1.8,0.9,left,2.3,3.3,4.2,1,0,1,0,1,19,39,5,,,right,0,1.038171811,2018_Dec_04_1652,59.96382354,TimingTask,1,ethansw
,,,,,,1,0,1,0,,,,,,,,,,2018_Dec_04_1652,59.96382354,TimingTask,1,ethansw
0.9,1.8,right,1.4,2.4,4.2,0,0,0,0,0,0,0,15,space,0.98396844,right,1,0.367772984,2018_Dec_04_1655,None,TimingTask,1,evalley
8.8,9.9,right,9.3,10.3,20.2,0,0,0,0,0,1,1,14,,,right,1,0.50079047,2018_Dec_04_1655,None,TimingTask,1,evalley
2.5,1.5,left,3,4,5.5,0,0,0,0,0,2,2,1,,,left,1,0.783947847,2018_Dec_04_1655,None,TimingTask,1,evalley
1.5,2.5,right,2,3,5.5,0,0,0,0,0,3,3,11,,,right,1,0.638051296,2018_Dec_04_1655,None,TimingTask,1,evalley
3.2,3.6,right,3.7,4.7,8.3,0,0,0,0,0,4,4,9,,,right,1,0.971248096,2018_Dec_04_1655,None,TimingTask,1,evalley
3.3,4.4,right,3.8,4.8,9.2,0,0,0,0,0,5,5,3,,,right,1,0.484263409,2018_Dec_04_1655,None,TimingTask,1,evalley
1.4,0.7,left,1.9,2.9,3.6,0,0,0,0,0,6,6,10,,,left,1,0.834178702,2018_Dec_04_1655,None,TimingTask,1,evalley
1.8,0.9,left,2.3,3.3,4.2,0,0,0,0,0,7,7,5,,,left,1,0.733866609,2018_Dec_04_1655,None,TimingTask,1,evalley
2.1,3.5,right,2.6,3.6,7.1,0,0,0,0,0,8,8,6,,,right,1,0.796400814,2018_Dec_04_1655,None,TimingTask,1,evalley
9.9,8.8,left,10.4,11.4,20.2,0,0,0,0,0,9,9,4,,,left,1,0.750639431,2018_Dec_04_1655,None,TimingTask,1,evalley
2.7,1.8,left,3.2,4.2,6,0,0,0,0,0,10,10,7,,,left,1,0.450712647,2018_Dec_04_1655,None,TimingTask,1,evalley
3.6,3.2,left,4.1,5.1,8.3,0,0,0,0,0,11,11,19,,,left,1,0.534229731,2018_Dec_04_1655,None,TimingTask,1,evalley
4.4,3.3,left,4.9,5.9,9.2,0,0,0,0,0,12,12,13,,,left,1,0.746495932,2018_Dec_04_1655,None,TimingTask,1,evalley
2.1,2.8,right,2.6,3.6,6.4,0,0,0,0,0,13,13,18,,,right,1,0.954837656,2018_Dec_04_1655,None,TimingTask,1,evalley
0.7,1.4,right,1.2,2.2,3.6,0,0,0,0,0,14,14,0,,,right,1,0.404784863,2018_Dec_04_1655,None,TimingTask,1,evalley
3.5,2.1,left,4,5,7.1,0,0,0,0,0,15,15,16,,,left,1,0.538079683,2018_Dec_04_1655,None,TimingTask,1,evalley
2.8,2.1,left,3.3,4.3,6.4,0,0,0,0,0,16,16,8,,,left,1,0.517405141,2018_Dec_04_1655,None,TimingTask,1,evalley
1.8,2.7,right,2.3,3.3,6,0,0,0,0,0,17,17,17,,,right,1,0.850589425,2018_Dec_04_1655,None,TimingTask,1,evalley
1.2,1.8,right,1.7,2.7,4.5,0,0,0,0,0,18,18,2,,,right,1,0.850829212,2018_Dec_04_1655,None,TimingTask,1,evalley
1.8,1.2,left,2.3,3.3,4.5,0,0,0,0,0,19,19,12,,,left,1,0.755052013,2018_Dec_04_1655,None,TimingTask,1,evalley
1.2,1.8,right,1.7,2.7,4.5,0,0,0,0,1,0,20,2,,,right,1,1.104683715,2018_Dec_04_1655,None,TimingTask,1,evalley
8.8,9.9,right,9.3,10.3,20.2,0,0,0,0,1,1,21,14,,,right,1,0.350951523,2018_Dec_04_1655,None,TimingTask,1,evalley
3.3,4.4,right,3.8,4.8,9.2,0,0,0,0,1,2,22,3,,,right,1,0.683938403,2018_Dec_04_1655,None,TimingTask,1,evalley
1.4,0.7,left,1.9,2.9,3.6,0,0,0,0,1,3,23,10,,,left,1,0.904751868,2018_Dec_04_1655,None,TimingTask,1,evalley
3.6,3.2,left,4.1,5.1,8.3,0,0,0,0,1,4,24,19,,,right,0,0.484108956,2018_Dec_04_1655,None,TimingTask,1,evalley
1.5,2.5,right,2,3,5.5,0,0,0,0,1,5,25,11,,,right,1,0.39667223,2018_Dec_04_1655,None,TimingTask,1,evalley
0.7,1.4,right,1.2,2.2,3.6,0,0,0,0,1,6,26,0,,,right,1,0.717321059,2018_Dec_04_1655,None,TimingTask,1,evalley
1.8,2.7,right,2.3,3.3,6,0,0,0,0,1,7,27,17,,,right,1,0.584078293,2018_Dec_04_1655,None,TimingTask,1,evalley
4.4,3.3,left,4.9,5.9,9.2,0,0,0,0,1,8,28,13,,,right,0,0.984150485,2018_Dec_04_1655,None,TimingTask,1,evalley
2.5,1.5,left,3,4,5.5,0,0,0,0,1,9,29,1,,,left,1,0.646805635,2018_Dec_04_1655,None,TimingTask,1,evalley
2.7,1.8,left,3.2,4.2,6,0,0,0,0,1,10,30,7,,,left,1,0.729822382,2018_Dec_04_1655,None,TimingTask,1,evalley
0.9,1.8,right,1.4,2.4,4.2,0,0,0,0,1,11,31,15,,,right,1,0.48406828,2018_Dec_04_1655,None,TimingTask,1,evalley
3.5,2.1,left,4,5,7.1,0,0,0,0,1,12,32,16,,,left,1,0.787955097,2018_Dec_04_1655,None,TimingTask,1,evalley
9.9,8.8,left,10.4,11.4,20.2,0,0,0,0,1,13,33,4,,,right,0,1.067409578,2018_Dec_04_1655,None,TimingTask,1,evalley
2.1,2.8,right,2.6,3.6,6.4,0,0,0,0,1,14,34,18,,,right,1,0.954810065,2018_Dec_04_1655,None,TimingTask,1,evalley
2.8,2.1,left,3.3,4.3,6.4,0,0,0,0,1,15,35,8,,,left,1,1.079896678,2018_Dec_04_1655,None,TimingTask,1,evalley
1.8,0.9,left,2.3,3.3,4.2,0,0,0,0,1,16,36,5,,,left,1,1.384085006,2018_Dec_04_1655,None,TimingTask,1,evalley
3.2,3.6,right,3.7,4.7,8.3,0,0,0,0,1,17,37,9,,,right,1,1.088311391,2018_Dec_04_1655,None,TimingTask,1,evalley
1.8,1.2,left,2.3,3.3,4.5,0,0,0,0,1,18,38,12,,,left,1,0.967388757,2018_Dec_04_1655,None,TimingTask,1,evalley
2.1,3.5,right,2.6,3.6,7.1,0,0,0,0,1,19,39,6,,,right,1,0.696543263,2018_Dec_04_1655,None,TimingTask,1,evalley
,,,,,,0,0,0,0,,,,,,,,,,2018_Dec_04_1655,None,TimingTask,1,evalley
3.6,3.2,left,4.1,5.1,8.3,1,0,1,0,0,0,0,19,space,4.417773724,right,0,0.000172658,2018_Dec_04_1655,None,TimingTask,1,evalley
1.8,0.9,left,2.3,3.3,4.2,1,0,1,0,0,1,1,5,,,left,1,0.000173795,2018_Dec_04_1655,None,TimingTask,1,evalley
2.7,1.8,left,3.2,4.2,6,1,0,1,0,0,2,2,7,,,right,0,10.18728432,2018_Dec_04_1655,None,TimingTask,1,evalley
3.3,4.4,right,3.8,4.8,9.2,1,0,1,0,0,3,3,3,,,right,1,0.996467772,2018_Dec_04_1655,None,TimingTask,1,evalley
1.2,1.8,right,1.7,2.7,4.5,1,0,1,0,0,4,4,2,,,right,1,0.696604703,2018_Dec_04_1655,None,TimingTask,1,evalley
9.9,8.8,left,10.4,11.4,20.2,1,0,1,0,0,5,5,4,,,right,0,0.671601774,2018_Dec_04_1655,None,TimingTask,1,evalley
0.9,1.8,right,1.4,2.4,4.2,1,0,1,0,0,6,6,15,,,right,1,0.971441233,2018_Dec_04_1655,None,TimingTask,1,evalley
2.1,3.5,right,2.6,3.6,7.1,1,0,1,0,0,7,7,6,,,right,1,0.404811601,2018_Dec_04_1655,None,TimingTask,1,evalley
3.2,3.6,right,3.7,4.7,8.3,1,0,1,0,0,8,8,9,,,right,1,1.467194197,2018_Dec_04_1655,None,TimingTask,1,evalley
8.8,9.9,right,9.3,10.3,20.2,1,0,1,0,0,9,9,14,,,left,0,0.000185458,2018_Dec_04_1655,None,TimingTask,1,evalley
1.4,0.7,left,1.9,2.9,3.6,1,0,1,0,0,10,10,10,,,right,0,0.000175502,2018_Dec_04_1655,None,TimingTask,1,evalley
0.7,1.4,right,1.2,2.2,3.6,1,0,1,0,0,11,11,0,,,right,1,4.446025859,2018_Dec_04_1655,None,TimingTask,1,evalley
3.5,2.1,left,4,5,7.1,1,0,1,0,0,12,12,16,,,right,0,0.513031242,2018_Dec_04_1655,None,TimingTask,1,evalley
2.1,2.8,right,2.6,3.6,6.4,1,0,1,0,0,13,13,18,,,right,1,0.400778751,2018_Dec_04_1655,None,TimingTask,1,evalley
1.8,1.2,left,2.3,3.3,4.5,1,0,1,0,0,14,14,12,,,left,1,0.600089941,2018_Dec_04_1655,None,TimingTask,1,evalley
2.8,2.1,left,3.3,4.3,6.4,1,0,1,0,0,15,15,8,,,left,1,0.570158447,2018_Dec_04_1655,None,TimingTask,1,evalley
2.5,1.5,left,3,4,5.5,1,0,1,0,0,16,16,1,,,right,0,0.500618951,2018_Dec_04_1655,None,TimingTask,1,evalley
4.4,3.3,left,4.9,5.9,9.2,1,0,1,0,0,17,17,13,,,right,0,0.517467718,2018_Dec_04_1655,None,TimingTask,1,evalley
1.5,2.5,right,2,3,5.5,1,0,1,0,0,18,18,11,,,right,1,0.379671,2018_Dec_04_1655,None,TimingTask,1,evalley
1.8,2.7,right,2.3,3.3,6,1,0,1,0,0,19,19,17,,,right,1,0.70057526,2018_Dec_04_1655,None,TimingTask,1,evalley
3.6,3.2,left,4.1,5.1,8.3,1,0,1,0,1,0,20,19,,,left,1,0.800631352,2018_Dec_04_1655,None,TimingTask,1,evalley
8.8,9.9,right,9.3,10.3,20.2,1,0,1,0,1,1,21,14,,,right,1,0.417541901,2018_Dec_04_1655,None,TimingTask,1,evalley
2.1,2.8,right,2.6,3.6,6.4,1,0,1,0,1,2,22,18,,,right,1,9.500073387,2018_Dec_04_1655,None,TimingTask,1,evalley
3.2,3.6,right,3.7,4.7,8.3,1,0,1,0,1,3,23,9,,,right,1,4.23777345,2018_Dec_04_1655,None,TimingTask,1,evalley
1.5,2.5,right,2,3,5.5,1,0,1,0,1,4,24,11,,,right,1,0.250613831,2018_Dec_04_1655,None,TimingTask,1,evalley
0.7,1.4,right,1.2,2.2,3.6,1,0,1,0,1,5,25,0,,,right,1,0.400673791,2018_Dec_04_1655,None,TimingTask,1,evalley
2.7,1.8,left,3.2,4.2,6,1,0,1,0,1,6,26,7,,,left,1,0.471253785,2018_Dec_04_1655,None,TimingTask,1,evalley
3.5,2.1,left,4,5,7.1,1,0,1,0,1,7,27,16,,,right,0,0.584295039,2018_Dec_04_1655,None,TimingTask,1,evalley
1.4,0.7,left,1.9,2.9,3.6,1,0,1,0,1,8,28,10,,,right,0,0.517406847,2018_Dec_04_1655,None,TimingTask,1,evalley
0.9,1.8,right,1.4,2.4,4.2,1,0,1,0,1,9,29,15,,,right,1,0.334153386,2018_Dec_04_1655,None,TimingTask,1,evalley
2.8,2.1,left,3.3,4.3,6.4,1,0,1,0,1,10,30,8,,,left,1,0.438234933,2018_Dec_04_1655,None,TimingTask,1,evalley
1.8,2.7,right,2.3,3.3,6,1,0,1,0,1,11,31,17,,,right,1,0.367413446,2018_Dec_04_1655,None,TimingTask,1,evalley
9.9,8.8,left,10.4,11.4,20.2,1,0,1,0,1,12,32,4,,,left,1,0.554913091,2018_Dec_04_1655,None,TimingTask,1,evalley
3.3,4.4,right,3.8,4.8,9.2,1,0,1,0,1,13,33,3,,,right,1,0.367408895,2018_Dec_04_1655,None,TimingTask,1,evalley
2.5,1.5,left,3,4,5.5,1,0,1,0,1,14,34,1,,,left,1,0.700716629,2018_Dec_04_1655,None,TimingTask,1,evalley
4.4,3.3,left,4.9,5.9,9.2,1,0,1,0,1,15,35,13,,,right,0,0.329999647,2018_Dec_04_1655,None,TimingTask,1,evalley
1.2,1.8,right,1.7,2.7,4.5,1,0,1,0,1,16,36,2,,,left,0,0.696642819,2018_Dec_04_1655,None,TimingTask,1,evalley
2.1,3.5,right,2.6,3.6,7.1,1,0,1,0,1,17,37,6,,,right,1,0.000205938,2018_Dec_04_1655,None,TimingTask,1,evalley
1.8,1.2,left,2.3,3.3,4.5,1,0,1,0,1,18,38,12,,,right,0,0.000172658,2018_Dec_04_1655,None,TimingTask,1,evalley
1.8,0.9,left,2.3,3.3,4.2,1,0,1,0,1,19,39,5,,,right,0,1.133976917,2018_Dec_04_1655,None,TimingTask,1,evalley
,,,,,,1,0,1,0,,,,,,,,,,2018_Dec_04_1655,None,TimingTask,1,evalley
1.8,0.9,left,2.3,3.3,4.2,0,0,0,0,0,0,0,5,space,1.305133931,left,1,1.221493445,2018_Dec_04_1658,None,TimingTask,1,jhernand
2.5,1.5,left,3,4,5.5,0,0,0,0,0,1,1,1,,,left,1,0.750061582,2018_Dec_04_1658,None,TimingTask,1,jhernand
4.4,3.3,left,4.9,5.9,9.2,0,0,0,0,0,2,2,13,,,left,1,1.217223087,2018_Dec_04_1658,None,TimingTask,1,jhernand
0.7,1.4,right,1.2,2.2,3.6,0,0,0,0,0,3,3,0,,,right,1,0.933950103,2018_Dec_04_1658,None,TimingTask,1,jhernand
1.8,2.7,right,2.3,3.3,6,0,0,0,0,0,4,4,17,,,right,1,0.717390624,2018_Dec_04_1658,None,TimingTask,1,jhernand
1.4,0.7,left,1.9,2.9,3.6,0,0,0,0,0,5,5,10,,,left,1,0.917193505,2018_Dec_04_1658,None,TimingTask,1,jhernand
0.9,1.8,right,1.4,2.4,4.2,0,0,0,0,0,6,6,15,,,right,1,0.7123096,2018_Dec_04_1658,None,TimingTask,1,jhernand
1.2,1.8,right,1.7,2.7,4.5,0,0,0,0,0,7,7,2,,,right,1,0.700787341,2018_Dec_04_1658,None,TimingTask,1,jhernand
3.2,3.6,right,3.7,4.7,8.3,0,0,0,0,0,8,8,9,,,right,1,0.621430583,2018_Dec_04_1658,None,TimingTask,1,jhernand
2.1,3.5,right,2.6,3.6,7.1,0,0,0,0,0,9,9,6,,,right,1,0.471568396,2018_Dec_04_1658,None,TimingTask,1,jhernand
2.1,2.8,right,2.6,3.6,6.4,0,0,0,0,0,10,10,18,,,right,1,1.071565552,2018_Dec_04_1658,None,TimingTask,1,jhernand
3.6,3.2,left,4.1,5.1,8.3,0,0,0,0,0,11,11,19,,,right,0,0.888146079,2018_Dec_04_1658,None,TimingTask,1,jhernand
2.8,2.1,left,3.3,4.3,6.4,0,0,0,0,0,12,12,8,,,right,0,1.466868812,2018_Dec_04_1658,None,TimingTask,1,jhernand
3.5,2.1,left,4,5,7.1,0,0,0,0,0,13,13,16,,,left,1,0.734114796,2018_Dec_04_1658,None,TimingTask,1,jhernand
8.8,9.9,right,9.3,10.3,20.2,0,0,0,0,0,14,14,14,,,right,1,1.087859928,2018_Dec_04_1658,None,TimingTask,1,jhernand
3.3,4.4,right,3.8,4.8,9.2,0,0,0,0,0,15,15,3,,,right,1,0.584093605,2018_Dec_04_1658,None,TimingTask,1,jhernand
9.9,8.8,left,10.4,11.4,20.2,0,0,0,0,0,16,16,4,,,left,1,0.70071367,2018_Dec_04_1658,None,TimingTask,1,jhernand
1.5,2.5,right,2,3,5.5,0,0,0,0,0,17,17,11,,,right,1,0.63404596,2018_Dec_04_1658,None,TimingTask,1,jhernand
1.8,1.2,left,2.3,3.3,4.5,0,0,0,0,0,18,18,12,,,left,1,0.967315104,2018_Dec_04_1658,None,TimingTask,1,jhernand
2.7,1.8,left,3.2,4.2,6,0,0,0,0,0,19,19,7,,,right,0,0.833313802,2018_Dec_04_1658,None,TimingTask,1,jhernand
3.6,3.2,left,4.1,5.1,8.3,0,0,0,0,1,0,20,19,,,right,0,0.488143803,2018_Dec_04_1658,None,TimingTask,1,jhernand
8.8,9.9,right,9.3,10.3,20.2,0,0,0,0,1,1,21,14,,,right,1,1.35487722,2018_Dec_04_1658,None,TimingTask,1,jhernand
9.9,8.8,left,10.4,11.4,20.2,0,0,0,0,1,2,22,4,,,left,1,5.133599952,2018_Dec_04_1658,None,TimingTask,1,jhernand
1.8,1.2,left,2.3,3.3,4.5,0,0,0,0,1,3,23,12,,,left,1,1.117289077,2018_Dec_04_1658,None,TimingTask,1,jhernand
4.4,3.3,left,4.9,5.9,9.2,0,0,0,0,1,4,24,13,,,left,1,1.550662897,2018_Dec_04_1658,None,TimingTask,1,jhernand
1.8,2.7,right,2.3,3.3,6,0,0,0,0,1,5,25,17,,,right,1,0.671523738,2018_Dec_04_1658,None,TimingTask,1,jhernand
2.1,3.5,right,2.6,3.6,7.1,0,0,0,0,1,6,26,6,,,right,1,0.783654423,2018_Dec_04_1658,None,TimingTask,1,jhernand
0.9,1.8,right,1.4,2.4,4.2,0,0,0,0,1,7,27,15,,,right,1,0.783498263,2018_Dec_04_1658,None,TimingTask,1,jhernand
3.3,4.4,right,3.8,4.8,9.2,0,0,0,0,1,8,28,3,,,right,1,1.882749607,2018_Dec_04_1658,None,TimingTask,1,jhernand
3.2,3.6,right,3.7,4.7,8.3,0,0,0,0,1,9,29,9,,,right,1,3.95E-05,2018_Dec_04_1658,None,TimingTask,1,jhernand
1.8,0.9,left,2.3,3.3,4.2,0,0,0,0,1,10,30,5,,,left,1,1.187492142,2018_Dec_04_1658,None,TimingTask,1,jhernand
1.4,0.7,left,1.9,2.9,3.6,0,0,0,0,1,11,31,10,,,left,1,0.733380361,2018_Dec_04_1658,None,TimingTask,1,jhernand
2.7,1.8,left,3.2,4.2,6,0,0,0,0,1,12,32,7,,,left,1,1.100556657,2018_Dec_04_1658,None,TimingTask,1,jhernand
3.5,2.1,left,4,5,7.1,0,0,0,0,1,13,33,16,,,left,1,0.833995898,2018_Dec_04_1658,None,TimingTask,1,jhernand
2.5,1.5,left,3,4,5.5,0,0,0,0,1,14,34,1,,,left,1,0.704659194,2018_Dec_04_1658,None,TimingTask,1,jhernand
1.2,1.8,right,1.7,2.7,4.5,0,0,0,0,1,15,35,2,,,left,0,5.80E-05,2018_Dec_04_1658,None,TimingTask,1,jhernand
2.1,2.8,right,2.6,3.6,6.4,0,0,0,0,1,16,36,18,,,right,1,0.000180053,2018_Dec_04_1658,None,TimingTask,1,jhernand
2.8,2.1,left,3.3,4.3,6.4,0,0,0,0,1,17,37,8,,,left,1,0.167284953,2018_Dec_04_1658,None,TimingTask,1,jhernand
0.7,1.4,right,1.2,2.2,3.6,0,0,0,0,1,18,38,0,,,right,1,9.220693588,2018_Dec_04_1658,None,TimingTask,1,jhernand
1.5,2.5,right,2,3,5.5,0,0,0,0,1,19,39,11,,,right,1,0.833298157,2018_Dec_04_1658,None,TimingTask,1,jhernand
,,,,,,0,0,0,0,,,,,,,,,,2018_Dec_04_1658,None,TimingTask,1,jhernand
1.8,1.2,left,2.3,3.3,4.5,1,0,1,0,0,0,0,12,space,2.15098119,left,1,1.554080207,2018_Dec_04_1658,None,TimingTask,1,jhernand
2.1,3.5,right,2.6,3.6,7.1,1,0,1,0,0,1,1,6,,,right,1,0.000180337,2018_Dec_04_1658,None,TimingTask,1,jhernand
9.9,8.8,left,10.4,11.4,20.2,1,0,1,0,0,2,2,4,,,right,0,1.587194329,2018_Dec_04_1658,None,TimingTask,1,jhernand
3.6,3.2,left,4.1,5.1,8.3,1,0,1,0,0,3,3,19,,,left,1,1.017343122,2018_Dec_04_1658,None,TimingTask,1,jhernand
2.7,1.8,left,3.2,4.2,6,1,0,1,0,0,4,4,7,,,left,1,0.904683656,2018_Dec_04_1658,None,TimingTask,1,jhernand
2.8,2.1,left,3.3,4.3,6.4,1,0,1,0,0,5,5,8,,,left,1,0.934101427,2018_Dec_04_1658,None,TimingTask,1,jhernand
0.7,1.4,right,1.2,2.2,3.6,1,0,1,0,0,6,6,0,,,right,1,0.534049089,2018_Dec_04_1658,None,TimingTask,1,jhernand
1.8,0.9,left,2.3,3.3,4.2,1,0,1,0,0,7,7,5,,,right,0,1.216548385,2018_Dec_04_1658,None,TimingTask,1,jhernand
1.8,2.7,right,2.3,3.3,6,1,0,1,0,0,8,8,17,,,right,1,0.467679761,2018_Dec_04_1658,None,TimingTask,1,jhernand
2.5,1.5,left,3,4,5.5,1,0,1,0,0,9,9,1,,,left,1,0.554928135,2018_Dec_04_1658,None,TimingTask,1,jhernand
4.4,3.3,left,4.9,5.9,9.2,1,0,1,0,0,10,10,13,,,left,1,0.745981517,2018_Dec_04_1658,None,TimingTask,1,jhernand
1.5,2.5,right,2,3,5.5,1,0,1,0,0,11,11,11,,,right,1,0.65486954,2018_Dec_04_1658,None,TimingTask,1,jhernand
8.8,9.9,right,9.3,10.3,20.2,1,0,1,0,0,12,12,14,,,right,1,0.883929481,2018_Dec_04_1658,None,TimingTask,1,jhernand
0.9,1.8,right,1.4,2.4,4.2,1,0,1,0,0,13,13,15,,,left,0,2.104722055,2018_Dec_04_1658,None,TimingTask,1,jhernand
1.4,0.7,left,1.9,2.9,3.6,1,0,1,0,0,14,14,10,,,left,1,2.638033581,2018_Dec_04_1658,None,TimingTask,1,jhernand
3.5,2.1,left,4,5,7.1,1,0,1,0,0,15,15,16,,,left,1,1.146402778,2018_Dec_04_1658,None,TimingTask,1,jhernand
3.2,3.6,right,3.7,4.7,8.3,1,0,1,0,0,16,16,9,,,left,0,1.667439406,2018_Dec_04_1658,None,TimingTask,1,jhernand
2.1,2.8,right,2.6,3.6,6.4,1,0,1,0,0,17,17,18,,,right,1,1.217481362,2018_Dec_04_1658,None,TimingTask,1,jhernand
3.3,4.4,right,3.8,4.8,9.2,1,0,1,0,0,18,18,3,,,right,1,1.046344183,2018_Dec_04_1658,None,TimingTask,1,jhernand
1.2,1.8,right,1.7,2.7,4.5,1,0,1,0,0,19,19,2,,,right,1,1.234120485,2018_Dec_04_1658,None,TimingTask,1,jhernand
2.1,2.8,right,2.6,3.6,6.4,1,0,1,0,1,0,20,18,,,right,1,1.104844082,2018_Dec_04_1658,None,TimingTask,1,jhernand
0.7,1.4,right,1.2,2.2,3.6,1,0,1,0,1,1,21,0,,,right,1,1.254588509,2018_Dec_04_1658,None,TimingTask,1,jhernand
8.8,9.9,right,9.3,10.3,20.2,1,0,1,0,1,2,22,14,,,right,1,1.1045969,2018_Dec_04_1658,None,TimingTask,1,jhernand
3.5,2.1,left,4,5,7.1,1,0,1,0,1,3,23,16,,,left,1,1.9673481,2018_Dec_04_1658,None,TimingTask,1,jhernand
1.8,2.7,right,2.3,3.3,6,1,0,1,0,1,4,24,17,,,left,0,0.000168391,2018_Dec_04_1658,None,TimingTask,1,jhernand
1.8,0.9,left,2.3,3.3,4.2,1,0,1,0,1,5,25,5,,,left,1,1.071370139,2018_Dec_04_1658,None,TimingTask,1,jhernand
1.2,1.8,right,1.7,2.7,4.5,1,0,1,0,1,6,26,2,,,right,1,0.384095027,2018_Dec_04_1658,None,TimingTask,1,jhernand
2.7,1.8,left,3.2,4.2,6,1,0,1,0,1,7,27,7,,,left,1,0.750690772,2018_Dec_04_1658,None,TimingTask,1,jhernand
2.5,1.5,left,3,4,5.5,1,0,1,0,1,8,28,1,,,left,1,1.221321925,2018_Dec_04_1658,None,TimingTask,1,jhernand
1.5,2.5,right,2,3,5.5,1,0,1,0,1,9,29,11,,,right,1,0.450687644,2018_Dec_04_1658,None,TimingTask,1,jhernand
1.4,0.7,left,1.9,2.9,3.6,1,0,1,0,1,10,30,10,,,left,1,1.379913131,2018_Dec_04_1658,None,TimingTask,1,jhernand
1.8,1.2,left,2.3,3.3,4.5,1,0,1,0,1,11,31,12,,,left,1,1.267207585,2018_Dec_04_1658,None,TimingTask,1,jhernand
3.6,3.2,left,4.1,5.1,8.3,1,0,1,0,1,12,32,19,,,left,1,1.650586666,2018_Dec_04_1658,None,TimingTask,1,jhernand
3.3,4.4,right,3.8,4.8,9.2,1,0,1,0,1,13,33,3,,,right,1,0.450747092,2018_Dec_04_1658,None,TimingTask,1,jhernand
3.2,3.6,right,3.7,4.7,8.3,1,0,1,0,1,14,34,9,,,right,1,0.349919644,2018_Dec_04_1658,None,TimingTask,1,jhernand
2.1,3.5,right,2.6,3.6,7.1,1,0,1,0,1,15,35,6,,,right,1,0.700717652,2018_Dec_04_1658,None,TimingTask,1,jhernand
0.9,1.8,right,1.4,2.4,4.2,1,0,1,0,1,16,36,15,,,right,1,0.546673285,2018_Dec_04_1658,None,TimingTask,1,jhernand
9.9,8.8,left,10.4,11.4,20.2,1,0,1,0,1,17,37,4,,,left,1,1.234031454,2018_Dec_04_1658,None,TimingTask,1,jhernand
2.8,2.1,left,3.3,4.3,6.4,1,0,1,0,1,18,38,8,,,right,0,2.450313884,2018_Dec_04_1658,None,TimingTask,1,jhernand
4.4,3.3,left,4.9,5.9,9.2,1,0,1,0,1,19,39,13,,,left,1,0.650753066,2018_Dec_04_1658,None,TimingTask,1,jhernand
,,,,,,1,0,1,0,,,,,,,,,,2018_Dec_04_1658,None,TimingTask,1,jhernand
3.2,3.6,right,3.7,4.7,8.3,0,0,0,0,0,0,0,9,space,1.48878934,right,1,1.100726556,2018_Dec_04_1656,None,TimingTask,1,madavis
1.8,1.2,left,2.3,3.3,4.5,0,0,0,0,0,1,1,12,,,left,1,0.584433445,2018_Dec_04_1656,None,TimingTask,1,madavis
1.4,0.7,left,1.9,2.9,3.6,0,0,0,0,0,2,2,10,,,left,1,0.71748425,2018_Dec_04_1656,None,TimingTask,1,madavis
1.8,0.9,left,2.3,3.3,4.2,0,0,0,0,0,3,3,5,,,left,1,0.68808352,2018_Dec_04_1656,None,TimingTask,1,madavis
2.7,1.8,left,3.2,4.2,6,0,0,0,0,0,4,4,7,,,left,1,1.300547811,2018_Dec_04_1656,None,TimingTask,1,madavis
4.4,3.3,left,4.9,5.9,9.2,0,0,0,0,0,5,5,13,,,right,0,0.417779247,2018_Dec_04_1656,None,TimingTask,1,madavis
1.8,2.7,right,2.3,3.3,6,0,0,0,0,0,6,6,17,,,right,1,0.350905258,2018_Dec_04_1656,None,TimingTask,1,madavis
0.7,1.4,right,1.2,2.2,3.6,0,0,0,0,0,7,7,0,,,right,1,0.650750777,2018_Dec_04_1656,None,TimingTask,1,madavis
3.5,2.1,left,4,5,7.1,0,0,0,0,0,8,8,16,,,right,0,0.550758087,2018_Dec_04_1656,None,TimingTask,1,madavis
1.5,2.5,right,2,3,5.5,0,0,0,0,0,9,9,11,,,right,1,4.116387489,2018_Dec_04_1656,None,TimingTask,1,madavis
8.8,9.9,right,9.3,10.3,20.2,0,0,0,0,0,10,10,14,,,right,1,0.634504741,2018_Dec_04_1656,None,TimingTask,1,madavis
0.9,1.8,right,1.4,2.4,4.2,0,0,0,0,0,11,11,15,,,right,1,1.400901461,2018_Dec_04_1656,None,TimingTask,1,madavis
2.1,2.8,right,2.6,3.6,6.4,0,0,0,0,0,12,12,18,,,right,1,0.450544384,2018_Dec_04_1656,None,TimingTask,1,madavis
3.3,4.4,right,3.8,4.8,9.2,0,0,0,0,0,13,13,3,,,left,0,0.633851088,2018_Dec_04_1656,None,TimingTask,1,madavis
2.5,1.5,left,3,4,5.5,0,0,0,0,0,14,14,1,,,left,1,4.467137441,2018_Dec_04_1656,None,TimingTask,1,madavis
2.8,2.1,left,3.3,4.3,6.4,0,0,0,0,0,15,15,8,,,right,0,0.45064593,2018_Dec_04_1656,None,TimingTask,1,madavis
1.2,1.8,right,1.7,2.7,4.5,0,0,0,0,0,16,16,2,,,right,1,1.921190445,2018_Dec_04_1656,None,TimingTask,1,madavis
3.6,3.2,left,4.1,5.1,8.3,0,0,0,0,0,17,17,19,,,right,0,1.088270456,2018_Dec_04_1656,None,TimingTask,1,madavis
2.1,3.5,right,2.6,3.6,7.1,0,0,0,0,0,18,18,6,,,right,1,0.878927998,2018_Dec_04_1656,None,TimingTask,1,madavis
9.9,8.8,left,10.4,11.4,20.2,0,0,0,0,0,19,19,4,,,right,0,0.867359364,2018_Dec_04_1656,None,TimingTask,1,madavis
3.5,2.1,left,4,5,7.1,0,0,0,0,1,0,20,16,,,left,1,0.667176296,2018_Dec_04_1656,None,TimingTask,1,madavis
1.5,2.5,right,2,3,5.5,0,0,0,0,1,1,21,11,,,right,1,0.421497787,2018_Dec_04_1656,None,TimingTask,1,madavis
2.7,1.8,left,3.2,4.2,6,0,0,0,0,1,2,22,7,,,left,1,0.751242381,2018_Dec_04_1656,None,TimingTask,1,madavis
9.9,8.8,left,10.4,11.4,20.2,0,0,0,0,1,3,23,4,,,right,0,0.417362536,2018_Dec_04_1656,None,TimingTask,1,madavis
0.9,1.8,right,1.4,2.4,4.2,0,0,0,0,1,4,24,15,,,right,1,3.438076053,2018_Dec_04_1656,None,TimingTask,1,madavis
3.3,4.4,right,3.8,4.8,9.2,0,0,0,0,1,5,25,3,,,left,0,6.229487656,2018_Dec_04_1656,None,TimingTask,1,madavis
3.2,3.6,right,3.7,4.7,8.3,0,0,0,0,1,6,26,9,,,right,1,3.112451065,2018_Dec_04_1656,None,TimingTask,1,madavis
2.1,3.5,right,2.6,3.6,7.1,0,0,0,0,1,7,27,6,,,right,1,0.000172942,2018_Dec_04_1656,None,TimingTask,1,madavis
4.4,3.3,left,4.9,5.9,9.2,0,0,0,0,1,8,28,13,,,right,0,0.45529375,2018_Dec_04_1656,None,TimingTask,1,madavis
1.2,1.8,right,1.7,2.7,4.5,0,0,0,0,1,9,29,2,,,right,1,0.921850356,2018_Dec_04_1656,None,TimingTask,1,madavis
1.8,0.9,left,2.3,3.3,4.2,0,0,0,0,1,10,30,5,,,left,1,0.797297609,2018_Dec_04_1656,None,TimingTask,1,madavis
1.8,1.2,left,2.3,3.3,4.5,0,0,0,0,1,11,31,12,,,left,1,1.420875992,2018_Dec_04_1656,None,TimingTask,1,madavis
2.8,2.1,left,3.3,4.3,6.4,0,0,0,0,1,12,32,8,,,left,1,0.655769227,2018_Dec_04_1656,None,TimingTask,1,madavis
0.7,1.4,right,1.2,2.2,3.6,0,0,0,0,1,13,33,0,,,right,1,3.300296078,2018_Dec_04_1656,None,TimingTask,1,madavis
8.8,9.9,right,9.3,10.3,20.2,0,0,0,0,1,14,34,14,,,right,1,0.430188698,2018_Dec_04_1656,None,TimingTask,1,madavis
1.4,0.7,left,1.9,2.9,3.6,0,0,0,0,1,15,35,10,,,left,1,1.000628906,2018_Dec_04_1656,None,TimingTask,1,madavis
3.6,3.2,left,4.1,5.1,8.3,0,0,0,0,1,16,36,19,,,left,1,0.596470843,2018_Dec_04_1656,None,TimingTask,1,madavis
2.1,2.8,right,2.6,3.6,6.4,0,0,0,0,1,17,37,18,,,right,1,1.071313879,2018_Dec_04_1656,None,TimingTask,1,madavis
2.5,1.5,left,3,4,5.5,0,0,0,0,1,18,38,1,,,left,1,0.970433155,2018_Dec_04_1656,None,TimingTask,1,madavis
1.8,2.7,right,2.3,3.3,6,0,0,0,0,1,19,39,17,,,left,0,0.651245425,2018_Dec_04_1656,None,TimingTask,1,madavis
,,,,,,0,0,0,0,,,,,,,,,,2018_Dec_04_1656,None,TimingTask,1,madavis
1.8,1.2,left,2.3,3.3,4.5,1,0,1,0,0,0,0,12,space,8.950023993,left,1,0.662930965,2018_Dec_04_1656,None,TimingTask,1,madavis
1.8,2.7,right,2.3,3.3,6,1,0,1,0,0,1,1,17,,,right,1,0.295833432,2018_Dec_04_1656,None,TimingTask,1,madavis
0.7,1.4,right,1.2,2.2,3.6,1,0,1,0,0,2,2,0,,,left,0,0.717275467,2018_Dec_04_1656,None,TimingTask,1,madavis
1.8,0.9,left,2.3,3.3,4.2,1,0,1,0,0,3,3,5,,,left,1,0.663184405,2018_Dec_04_1656,None,TimingTask,1,madavis
2.5,1.5,left,3,4,5.5,1,0,1,0,0,4,4,1,,,right,0,2.987937287,2018_Dec_04_1656,None,TimingTask,1,madavis
3.6,3.2,left,4.1,5.1,8.3,1,0,1,0,0,5,5,19,,,right,0,0.000176355,2018_Dec_04_1656,None,TimingTask,1,madavis
2.7,1.8,left,3.2,4.2,6,1,0,1,0,0,6,6,7,,,left,1,0.371325798,2018_Dec_04_1656,None,TimingTask,1,madavis
4.4,3.3,left,4.9,5.9,9.2,1,0,1,0,0,7,7,13,,,right,0,0.487928327,2018_Dec_04_1656,None,TimingTask,1,madavis
2.1,2.8,right,2.6,3.6,6.4,1,0,1,0,0,8,8,18,,,right,1,0.704841839,2018_Dec_04_1656,None,TimingTask,1,madavis
9.9,8.8,left,10.4,11.4,20.2,1,0,1,0,0,9,9,4,,,left,1,0.471313936,2018_Dec_04_1656,None,TimingTask,1,madavis
1.5,2.5,right,2,3,5.5,1,0,1,0,0,10,10,11,,,right,1,0.534056087,2018_Dec_04_1656,None,TimingTask,1,madavis
3.5,2.1,left,4,5,7.1,1,0,1,0,0,11,11,16,,,left,1,0.729226394,2018_Dec_04_1656,None,TimingTask,1,madavis
8.8,9.9,right,9.3,10.3,20.2,1,0,1,0,0,12,12,14,,,right,1,0.346601901,2018_Dec_04_1656,None,TimingTask,1,madavis
1.2,1.8,right,1.7,2.7,4.5,1,0,1,0,0,13,13,2,,,right,1,1.40059227,2018_Dec_04_1656,None,TimingTask,1,madavis
0.9,1.8,right,1.4,2.4,4.2,1,0,1,0,0,14,14,15,,,right,1,0.854724349,2018_Dec_04_1656,None,TimingTask,1,madavis
3.2,3.6,right,3.7,4.7,8.3,1,0,1,0,0,15,15,9,,,right,1,0.400764359,2018_Dec_04_1656,None,TimingTask,1,madavis
2.1,3.5,right,2.6,3.6,7.1,1,0,1,0,0,16,16,6,,,right,1,0.37070514,2018_Dec_04_1656,None,TimingTask,1,madavis
1.4,0.7,left,1.9,2.9,3.6,1,0,1,0,0,17,17,10,,,left,1,0.417286305,2018_Dec_04_1656,None,TimingTask,1,madavis
3.3,4.4,right,3.8,4.8,9.2,1,0,1,0,0,18,18,3,,,right,1,0.852092955,2018_Dec_04_1656,None,TimingTask,1,madavis
2.8,2.1,left,3.3,4.3,6.4,1,0,1,0,0,19,19,8,,,left,1,0.837296164,2018_Dec_04_1656,None,TimingTask,1,madavis
3.5,2.1,left,4,5,7.1,1,0,1,0,1,0,20,16,,,right,0,6.86E-05,2018_Dec_04_1656,None,TimingTask,1,madavis
1.8,2.7,right,2.3,3.3,6,1,0,1,0,1,1,21,17,,,left,0,0.546890782,2018_Dec_04_1656,None,TimingTask,1,madavis
2.1,3.5,right,2.6,3.6,7.1,1,0,1,0,1,2,22,6,,,right,1,0.567547126,2018_Dec_04_1656,None,TimingTask,1,madavis
1.5,2.5,right,2,3,5.5,1,0,1,0,1,3,23,11,,,right,1,0.404762792,2018_Dec_04_1656,None,TimingTask,1,madavis
1.8,1.2,left,2.3,3.3,4.5,1,0,1,0,1,4,24,12,,,left,1,0.550538211,2018_Dec_04_1656,None,TimingTask,1,madavis
3.3,4.4,right,3.8,4.8,9.2,1,0,1,0,1,5,25,3,,,right,1,0.629967002,2018_Dec_04_1656,None,TimingTask,1,madavis
0.9,1.8,right,1.4,2.4,4.2,1,0,1,0,1,6,26,15,,,left,0,0.734101769,2018_Dec_04_1656,None,TimingTask,1,madavis
4.4,3.3,left,4.9,5.9,9.2,1,0,1,0,1,7,27,13,,,right,0,0.450413824,2018_Dec_04_1656,None,TimingTask,1,madavis
1.8,0.9,left,2.3,3.3,4.2,1,0,1,0,1,8,28,5,,,left,1,0.679795951,2018_Dec_04_1656,None,TimingTask,1,madavis
2.8,2.1,left,3.3,4.3,6.4,1,0,1,0,1,9,29,8,,,left,1,0.69589436,2018_Dec_04_1656,None,TimingTask,1,madavis
2.7,1.8,left,3.2,4.2,6,1,0,1,0,1,10,30,7,,,left,1,0.817097206,2018_Dec_04_1656,None,TimingTask,1,madavis
8.8,9.9,right,9.3,10.3,20.2,1,0,1,0,1,11,31,14,,,right,1,0.530099183,2018_Dec_04_1656,None,TimingTask,1,madavis
9.9,8.8,left,10.4,11.4,20.2,1,0,1,0,1,12,32,4,,,left,1,0.934186135,2018_Dec_04_1656,None,TimingTask,1,madavis
3.2,3.6,right,3.7,4.7,8.3,1,0,1,0,1,13,33,9,,,right,1,0.650756465,2018_Dec_04_1656,None,TimingTask,1,madavis
1.4,0.7,left,1.9,2.9,3.6,1,0,1,0,1,14,34,10,,,right,0,2.521357926,2018_Dec_04_1656,None,TimingTask,1,madavis
1.2,1.8,right,1.7,2.7,4.5,1,0,1,0,1,15,35,2,,,right,1,2.363193251,2018_Dec_04_1656,None,TimingTask,1,madavis
0.7,1.4,right,1.2,2.2,3.6,1,0,1,0,1,16,36,0,,,right,1,3.950582073,2018_Dec_04_1656,None,TimingTask,1,madavis
2.1,2.8,right,2.6,3.6,6.4,1,0,1,0,1,17,37,18,,,left,0,0.829686141,2018_Dec_04_1656,None,TimingTask,1,madavis
2.5,1.5,left,3,4,5.5,1,0,1,0,1,18,38,1,,,right,0,3.017058408,2018_Dec_04_1656,None,TimingTask,1,madavis
3.6,3.2,left,4.1,5.1,8.3,1,0,1,0,1,19,39,19,,,left,1,0.317377526,2018_Dec_04_1656,None,TimingTask,1,madavis
,,,,,,1,0,1,0,,,,,,,,,,2018_Dec_04_1656,None,TimingTask,1,madavis
2.1,3.5,right,2.6,3.6,7.1,0,0,0,0,0,0,0,6,space,0.467630933,right,1,0.454791964,2018_Dec_04_1655,None,TimingTask,1,mmi
4.4,3.3,left,4.9,5.9,9.2,0,0,0,0,0,1,1,13,,,left,1,0.821466453,2018_Dec_04_1655,None,TimingTask,1,mmi
2.5,1.5,left,3,4,5.5,0,0,0,0,0,2,2,1,,,left,1,0.871344356,2018_Dec_04_1655,None,TimingTask,1,mmi
3.2,3.6,right,3.7,4.7,8.3,0,0,0,0,0,3,3,9,,,right,1,0.637802382,2018_Dec_04_1655,None,TimingTask,1,mmi
1.8,0.9,left,2.3,3.3,4.2,0,0,0,0,0,4,4,5,,,left,1,0.73798656,2018_Dec_04_1655,None,TimingTask,1,mmi
3.6,3.2,left,4.1,5.1,8.3,0,0,0,0,0,5,5,19,,,left,1,0.75482112,2018_Dec_04_1655,None,TimingTask,1,mmi
2.1,2.8,right,2.6,3.6,6.4,0,0,0,0,0,6,6,18,,,right,1,0.483961742,2018_Dec_04_1655,None,TimingTask,1,mmi
1.4,0.7,left,1.9,2.9,3.6,0,0,0,0,0,7,7,10,,,left,1,1.588083484,2018_Dec_04_1655,None,TimingTask,1,mmi
1.5,2.5,right,2,3,5.5,0,0,0,0,0,8,8,11,,,right,1,0.679822507,2018_Dec_04_1655,None,TimingTask,1,mmi
2.7,1.8,left,3.2,4.2,6,0,0,0,0,0,9,9,7,,,left,1,1.267037582,2018_Dec_04_1655,None,TimingTask,1,mmi
3.5,2.1,left,4,5,7.1,0,0,0,0,0,10,10,16,,,left,1,0.817120995,2018_Dec_04_1655,None,TimingTask,1,mmi
0.7,1.4,right,1.2,2.2,3.6,0,0,0,0,0,11,11,0,,,right,1,0.400236658,2018_Dec_04_1655,None,TimingTask,1,mmi
2.8,2.1,left,3.3,4.3,6.4,0,0,0,0,0,12,12,8,,,left,1,0.729830116,2018_Dec_04_1655,None,TimingTask,1,mmi
9.9,8.8,left,10.4,11.4,20.2,0,0,0,0,0,13,13,4,,,right,0,0.800631467,2018_Dec_04_1655,None,TimingTask,1,mmi
1.8,1.2,left,2.3,3.3,4.5,0,0,0,0,0,14,14,12,,,left,1,1.446314382,2018_Dec_04_1655,None,TimingTask,1,mmi
3.3,4.4,right,3.8,4.8,9.2,0,0,0,0,0,15,15,3,,,right,1,0.380093156,2018_Dec_04_1655,None,TimingTask,1,mmi
1.8,2.7,right,2.3,3.3,6,0,0,0,0,0,16,16,17,,,right,1,0.517213298,2018_Dec_04_1655,None,TimingTask,1,mmi
0.9,1.8,right,1.4,2.4,4.2,0,0,0,0,0,17,17,15,,,right,1,0.517144178,2018_Dec_04_1655,None,TimingTask,1,mmi
1.2,1.8,right,1.7,2.7,4.5,0,0,0,0,0,18,18,2,,,right,1,0.6009728,2018_Dec_04_1655,None,TimingTask,1,mmi
8.8,9.9,right,9.3,10.3,20.2,0,0,0,0,0,19,19,14,,,right,1,0.471402951,2018_Dec_04_1655,None,TimingTask,1,mmi
3.2,3.6,right,3.7,4.7,8.3,0,0,0,0,1,0,20,9,,,right,1,0.72132608,2018_Dec_04_1655,None,TimingTask,1,mmi
1.5,2.5,right,2,3,5.5,0,0,0,0,1,1,21,11,,,right,1,1.146283236,2018_Dec_04_1655,None,TimingTask,1,mmi
2.1,3.5,right,2.6,3.6,7.1,0,0,0,0,1,2,22,6,,,right,1,0.467445191,2018_Dec_04_1655,None,TimingTask,1,mmi
9.9,8.8,left,10.4,11.4,20.2,0,0,0,0,1,3,23,4,,,right,0,1.437936355,2018_Dec_04_1655,None,TimingTask,1,mmi
3.3,4.4,right,3.8,4.8,9.2,0,0,0,0,1,4,24,3,,,right,1,0.433917725,2018_Dec_04_1655,None,TimingTask,1,mmi
2.8,2.1,left,3.3,4.3,6.4,0,0,0,0,1,5,25,8,,,left,1,1.254626133,2018_Dec_04_1655,None,TimingTask,1,mmi
3.5,2.1,left,4,5,7.1,0,0,0,0,1,6,26,16,,,left,1,0.635468516,2018_Dec_04_1655,None,TimingTask,1,mmi
0.9,1.8,right,1.4,2.4,4.2,0,0,0,0,1,7,27,15,,,right,1,0.537968071,2018_Dec_04_1655,None,TimingTask,1,mmi
1.8,1.2,left,2.3,3.3,4.5,0,0,0,0,1,8,28,12,,,left,1,0.617289955,2018_Dec_04_1655,None,TimingTask,1,mmi
0.7,1.4,right,1.2,2.2,3.6,0,0,0,0,1,9,29,0,,,right,1,0.538001067,2018_Dec_04_1655,None,TimingTask,1,mmi
1.8,0.9,left,2.3,3.3,4.2,0,0,0,0,1,10,30,5,,,left,1,0.750568391,2018_Dec_04_1655,None,TimingTask,1,mmi
2.7,1.8,left,3.2,4.2,6,0,0,0,0,1,11,31,7,,,left,1,0.937965796,2018_Dec_04_1655,None,TimingTask,1,mmi
8.8,9.9,right,9.3,10.3,20.2,0,0,0,0,1,12,32,14,,,right,1,0.534002062,2018_Dec_04_1655,None,TimingTask,1,mmi
2.1,2.8,right,2.6,3.6,6.4,0,0,0,0,1,13,33,18,,,left,0,1.483613298,2018_Dec_04_1655,None,TimingTask,1,mmi
4.4,3.3,left,4.9,5.9,9.2,0,0,0,0,1,14,34,13,,,left,1,0.617022862,2018_Dec_04_1655,None,TimingTask,1,mmi
1.4,0.7,left,1.9,2.9,3.6,0,0,0,0,1,15,35,10,,,left,1,0.833960391,2018_Dec_04_1655,None,TimingTask,1,mmi
1.2,1.8,right,1.7,2.7,4.5,0,0,0,0,1,16,36,2,,,right,1,0.850585316,2018_Dec_04_1655,None,TimingTask,1,mmi
1.8,2.7,right,2.3,3.3,6,0,0,0,0,1,17,37,17,,,right,1,0.833908622,2018_Dec_04_1655,None,TimingTask,1,mmi
2.5,1.5,left,3,4,5.5,0,0,0,0,1,18,38,1,,,left,1,0.750462578,2018_Dec_04_1655,None,TimingTask,1,mmi
3.6,3.2,left,4.1,5.1,8.3,0,0,0,0,1,19,39,19,,,right,0,0.896512853,2018_Dec_04_1655,None,TimingTask,1,mmi
,,,,,,0,0,0,0,,,,,,,,,,2018_Dec_04_1655,None,TimingTask,1,mmi
3.2,3.6,right,3.7,4.7,8.3,1,0,1,0,0,0,0,9,space,2.179946951,right,1,0.650430009,2018_Dec_04_1655,None,TimingTask,1,mmi
2.1,3.5,right,2.6,3.6,7.1,1,0,1,0,0,1,1,6,,,right,1,0.621006222,2018_Dec_04_1655,None,TimingTask,1,mmi
2.1,2.8,right,2.6,3.6,6.4,1,0,1,0,0,2,2,18,,,right,1,0.76711168,2018_Dec_04_1655,None,TimingTask,1,mmi
1.8,1.2,left,2.3,3.3,4.5,1,0,1,0,0,3,3,12,,,left,1,0.8464768,2018_Dec_04_1655,None,TimingTask,1,mmi
3.5,2.1,left,4,5,7.1,1,0,1,0,0,4,4,16,,,left,1,0.754651591,2018_Dec_04_1655,None,TimingTask,1,mmi
3.6,3.2,left,4.1,5.1,8.3,1,0,1,0,0,5,5,19,,,left,1,0.984052907,2018_Dec_04_1655,None,TimingTask,1,mmi
9.9,8.8,left,10.4,11.4,20.2,1,0,1,0,0,6,6,4,,,right,0,0.65469184,2018_Dec_04_1655,None,TimingTask,1,mmi
3.3,4.4,right,3.8,4.8,9.2,1,0,1,0,0,7,7,3,,,right,1,0.638065209,2018_Dec_04_1655,None,TimingTask,1,mmi
1.8,0.9,left,2.3,3.3,4.2,1,0,1,0,0,8,8,5,,,left,1,0.82132992,2018_Dec_04_1655,None,TimingTask,1,mmi
1.4,0.7,left,1.9,2.9,3.6,1,0,1,0,0,9,9,10,,,left,1,0.704213333,2018_Dec_04_1655,None,TimingTask,1,mmi
4.4,3.3,left,4.9,5.9,9.2,1,0,1,0,0,10,10,13,,,left,1,0.779791076,2018_Dec_04_1655,None,TimingTask,1,mmi
1.5,2.5,right,2,3,5.5,1,0,1,0,0,11,11,11,,,right,1,0.35048448,2018_Dec_04_1655,None,TimingTask,1,mmi
0.7,1.4,right,1.2,2.2,3.6,1,0,1,0,0,12,12,0,,,right,1,0.333684622,2018_Dec_04_1655,None,TimingTask,1,mmi
1.2,1.8,right,1.7,2.7,4.5,1,0,1,0,0,13,13,2,,,right,1,0.383845831,2018_Dec_04_1655,None,TimingTask,1,mmi
1.8,2.7,right,2.3,3.3,6,1,0,1,0,0,14,14,17,,,right,1,1.354516764,2018_Dec_04_1655,None,TimingTask,1,mmi
2.8,2.1,left,3.3,4.3,6.4,1,0,1,0,0,15,15,8,,,left,1,0.921124978,2018_Dec_04_1655,None,TimingTask,1,mmi
2.5,1.5,left,3,4,5.5,1,0,1,0,0,16,16,1,,,left,1,0.60487168,2018_Dec_04_1655,None,TimingTask,1,mmi
8.8,9.9,right,9.3,10.3,20.2,1,0,1,0,0,17,17,14,,,left,0,1.137883876,2018_Dec_04_1655,None,TimingTask,1,mmi
0.9,1.8,right,1.4,2.4,4.2,1,0,1,0,0,18,18,15,,,right,1,1.970688284,2018_Dec_04_1655,None,TimingTask,1,mmi
2.7,1.8,left,3.2,4.2,6,1,0,1,0,0,19,19,7,,,right,0,0.9003904,2018_Dec_04_1655,None,TimingTask,1,mmi
3.2,3.6,right,3.7,4.7,8.3,1,0,1,0,1,0,20,9,,,right,1,0.429908196,2018_Dec_04_1655,None,TimingTask,1,mmi
1.2,1.8,right,1.7,2.7,4.5,1,0,1,0,1,1,21,2,,,right,1,0.713025707,2018_Dec_04_1655,None,TimingTask,1,mmi
3.6,3.2,left,4.1,5.1,8.3,1,0,1,0,1,2,22,19,,,left,1,0.66761984,2018_Dec_04_1655,None,TimingTask,1,mmi
2.7,1.8,left,3.2,4.2,6,1,0,1,0,1,3,23,7,,,left,1,1.017126685,2018_Dec_04_1655,None,TimingTask,1,mmi
3.3,4.4,right,3.8,4.8,9.2,1,0,1,0,1,4,24,3,,,right,1,0.317097529,2018_Dec_04_1655,None,TimingTask,1,mmi
0.7,1.4,right,1.2,2.2,3.6,1,0,1,0,1,5,25,0,,,right,1,0.813205333,2018_Dec_04_1655,None,TimingTask,1,mmi
8.8,9.9,right,9.3,10.3,20.2,1,0,1,0,1,6,26,14,,,right,1,0.471160036,2018_Dec_04_1655,None,TimingTask,1,mmi
1.8,0.9,left,2.3,3.3,4.2,1,0,1,0,1,7,27,5,,,left,1,0.867320036,2018_Dec_04_1655,None,TimingTask,1,mmi
1.8,1.2,left,2.3,3.3,4.5,1,0,1,0,1,8,28,12,,,left,1,0.700564195,2018_Dec_04_1655,None,TimingTask,1,mmi
1.5,2.5,right,2,3,5.5,1,0,1,0,1,9,29,11,,,right,1,0.454652871,2018_Dec_04_1655,None,TimingTask,1,mmi
2.1,3.5,right,2.6,3.6,7.1,1,0,1,0,1,10,30,6,,,right,1,0.629513387,2018_Dec_04_1655,None,TimingTask,1,mmi
3.5,2.1,left,4,5,7.1,1,0,1,0,1,11,31,16,,,left,1,0.68344064,2018_Dec_04_1655,None,TimingTask,1,mmi
1.4,0.7,left,1.9,2.9,3.6,1,0,1,0,1,12,32,10,,,left,1,0.862977422,2018_Dec_04_1655,None,TimingTask,1,mmi
1.8,2.7,right,2.3,3.3,6,1,0,1,0,1,13,33,17,,,left,0,1.39640576,2018_Dec_04_1655,None,TimingTask,1,mmi
2.5,1.5,left,3,4,5.5,1,0,1,0,1,14,34,1,,,left,1,0.750267449,2018_Dec_04_1655,None,TimingTask,1,mmi
9.9,8.8,left,10.4,11.4,20.2,1,0,1,0,1,15,35,4,,,right,0,0.817079467,2018_Dec_04_1655,None,TimingTask,1,mmi
4.4,3.3,left,4.9,5.9,9.2,1,0,1,0,1,16,36,13,,,left,1,0.813170631,2018_Dec_04_1655,None,TimingTask,1,mmi
2.1,2.8,right,2.6,3.6,6.4,1,0,1,0,1,17,37,18,,,left,0,0.800240356,2018_Dec_04_1655,None,TimingTask,1,mmi
2.8,2.1,left,3.3,4.3,6.4,1,0,1,0,1,18,38,8,,,right,0,1.379705742,2018_Dec_04_1655,None,TimingTask,1,mmi
0.9,1.8,right,1.4,2.4,4.2,1,0,1,0,1,19,39,15,,,right,1,0.467556693,2018_Dec_04_1655,None,TimingTask,1,mmi
,,,,,,1,0,1,0,,,,,,,,,,2018_Dec_04_1655,None,TimingTask,1,mmi
3.2,3.6,right,3.7,4.7,8.3,0,0,0,0,0,0,0,9,space,1.700651321,left,0,0.000159004,2018_Dec_04_1653,None,TimingTask,1,vzb
1.8,2.7,right,2.3,3.3,6,0,0,0,0,0,1,1,17,,,right,1,0.000160142,2018_Dec_04_1653,None,TimingTask,1,vzb
8.8,9.9,right,9.3,10.3,20.2,0,0,0,0,0,2,2,14,,,right,1,0.00017408,2018_Dec_04_1653,None,TimingTask,1,vzb
3.3,4.4,right,3.8,4.8,9.2,0,0,0,0,0,3,3,3,,,right,1,0.000159289,2018_Dec_04_1653,None,TimingTask,1,vzb
4.4,3.3,left,4.9,5.9,9.2,0,0,0,0,0,4,4,13,,,left,1,0.000157298,2018_Dec_04_1653,None,TimingTask,1,vzb
0.9,1.8,right,1.4,2.4,4.2,0,0,0,0,0,5,5,15,,,right,1,0.000160996,2018_Dec_04_1653,None,TimingTask,1,vzb
